row,rt,stimulus,key_press,trial_type,trial_index,time_elapsed,subject_id,condition,correct,target_present,center
1,1980.19,"<p>Welcome to the experiment. Press any key to get started.</p>",32,html-keyboard-response,0,1984,5c9c77127bc68a00124cedcc,3,NULL,NULL,NULL
2,5130.06,"<div style='width:800px;'><p>You will see a set of 10 symbols arranged in a circle.</p> <p>Sometimes all of the symbols will match. Other times one of the symbols will be different than the others.</p><p>Press the A key when one symbol is different. Press the L key when all symbols are the same.</p><p>Press any key to continue.</p></div>",122,html-keyboard-response,1,7115,5c9c77127bc68a00124cedcc,3,NULL,NULL,NULL
3,4066.08,display1.jpg,65,image-keyboard-response,2,11183,5c9c77127bc68a00124cedcc,3,NULL,NULL,NULL
4,3520.44,display2.jpg,76,image-keyboard-response,3,14704,5c9c77127bc68a00124cedcc,3,NULL,NULL,NULL
5,4483.44,"<div style='width:800px;'><p>In this set of trials, a fixation cross will be presented to you in the center of the screen.</p><p>Please focus your gaze on the fixation cross in the center until the symbol set is presented.</p><p>Press any key to continue.</p></div>",76,html-keyboard-response,4,19189,5c9c77127bc68a00124cedcc,3,NULL,NULL,NULL
6,6990.74,"<p>Now you will complete three trials for practice.</p><p>Press the A key if one of the symbols does not match and the L key if they all match.</p><p>Press any key when you are ready to begin.</p>",76,html-keyboard-response,5,26180,5c9c77127bc68a00124cedcc,3,NULL,NULL,NULL
7,1141.06,NULL,76,visual-search-circle,6,28330,5c9c77127bc68a00124cedcc,3,1,false,cross
8,1805.74,NULL,76,visual-search-circle,7,31443,5c9c77127bc68a00124cedcc,3,1,false,cross
9,1071.63,NULL,76,visual-search-circle,8,33822,5c9c77127bc68a00124cedcc,3,1,false,cross
10,3352.97,"<p>Now you will proceed to the test trials.</p><p>Press the A key if one of the symbols does not match and the L key if they all match.</p><p>Press any key when you are ready to begin.</p>",76,html-keyboard-response,9,37478,5c9c77127bc68a00124cedcc,3,NULL,NULL,NULL
11,1661.68,NULL,65,visual-search-circle,10,40147,5c9c77127bc68a00124cedcc,3,1,true,cross
12,1747.85,NULL,76,visual-search-circle,11,43202,5c9c77127bc68a00124cedcc,3,1,false,cross
13,1527.79,NULL,76,visual-search-circle,12,46037,5c9c77127bc68a00124cedcc,3,1,false,cross
14,2443.34,NULL,76,visual-search-circle,13,49788,5c9c77127bc68a00124cedcc,3,1,false,cross
15,1862.83,NULL,76,visual-search-circle,14,52960,5c9c77127bc68a00124cedcc,3,,true,cross
16,3145.96,NULL,76,visual-search-circle,15,57415,5c9c77127bc68a00124cedcc,3,1,false,cross
17,2043.39,NULL,65,visual-search-circle,16,60765,5c9c77127bc68a00124cedcc,3,1,true,cross
18,1048.62,NULL,65,visual-search-circle,17,63121,5c9c77127bc68a00124cedcc,3,,false,cross
19,1435.58,NULL,76,visual-search-circle,18,65864,5c9c77127bc68a00124cedcc,3,1,false,cross
20,2740.35,NULL,76,visual-search-circle,19,69913,5c9c77127bc68a00124cedcc,3,,true,cross
21,2702.79,NULL,76,visual-search-circle,20,73924,5c9c77127bc68a00124cedcc,3,1,false,cross
22,2644.4,NULL,76,visual-search-circle,21,77876,5c9c77127bc68a00124cedcc,3,1,false,cross
23,2320.84,NULL,65,visual-search-circle,22,81507,5c9c77127bc68a00124cedcc,3,1,true,cross
24,1701.88,NULL,65,visual-search-circle,23,84518,5c9c77127bc68a00124cedcc,3,1,true,cross
25,1882.61,NULL,76,visual-search-circle,24,87709,5c9c77127bc68a00124cedcc,3,1,false,cross
26,1444.7,NULL,65,visual-search-circle,25,90463,5c9c77127bc68a00124cedcc,3,1,true,cross
27,1581.96,NULL,76,visual-search-circle,26,93353,5c9c77127bc68a00124cedcc,3,1,false,cross
28,1366.18,NULL,76,visual-search-circle,27,96029,5c9c77127bc68a00124cedcc,3,1,false,cross
29,1439.39,NULL,65,visual-search-circle,28,98777,5c9c77127bc68a00124cedcc,3,1,true,cross
30,1391.71,NULL,65,visual-search-circle,29,101477,5c9c77127bc68a00124cedcc,3,1,true,cross
31,1712.29,NULL,76,visual-search-circle,30,104497,5c9c77127bc68a00124cedcc,3,1,false,cross
32,1458.61,NULL,65,visual-search-circle,31,107265,5c9c77127bc68a00124cedcc,3,1,true,cross
33,1711.41,NULL,76,visual-search-circle,32,110285,5c9c77127bc68a00124cedcc,3,1,false,cross
34,1831.41,NULL,76,visual-search-circle,33,113424,5c9c77127bc68a00124cedcc,3,,true,cross
35,1593.19,NULL,65,visual-search-circle,34,116326,5c9c77127bc68a00124cedcc,3,1,true,cross
36,2147.22,NULL,76,visual-search-circle,35,119781,5c9c77127bc68a00124cedcc,3,,true,cross
37,4476.08,"<div style='width:800px;'><p>Now the symbols will switch, where the target symbol will now be the nontarget and vice versa.</p><p>The rest of the procedure will remain the same for the next chunk of trials, so please continue to press the A key if one of the symbols does not match and the L key if they are all the same.</p><p>Press any key when you are ready to continue.</p></div>",76,html-keyboard-response,36,124558,5c9c77127bc68a00124cedcc,3,NULL,NULL,NULL
38,1375.37,NULL,76,visual-search-circle,37,126941,5c9c77127bc68a00124cedcc,3,1,false,cross
39,4200.08,NULL,76,visual-search-circle,38,132449,5c9c77127bc68a00124cedcc,3,1,false,cross
40,2018.42,NULL,76,visual-search-circle,39,135777,5c9c77127bc68a00124cedcc,3,1,false,cross
41,1151.26,NULL,65,visual-search-circle,40,138236,5c9c77127bc68a00124cedcc,3,1,true,cross
42,2142.54,NULL,65,visual-search-circle,41,141687,5c9c77127bc68a00124cedcc,3,1,true,cross
43,2027.53,NULL,76,visual-search-circle,42,145023,5c9c77127bc68a00124cedcc,3,,true,cross
44,1482.35,NULL,65,visual-search-circle,43,147814,5c9c77127bc68a00124cedcc,3,1,true,cross
45,2240.67,NULL,76,visual-search-circle,44,151363,5c9c77127bc68a00124cedcc,3,1,false,cross
46,2084.53,NULL,65,visual-search-circle,45,154756,5c9c77127bc68a00124cedcc,3,1,true,cross
47,1153.08,NULL,65,visual-search-circle,46,157217,5c9c77127bc68a00124cedcc,3,1,true,cross
48,2115.61,NULL,76,visual-search-circle,47,160639,5c9c77127bc68a00124cedcc,3,1,false,cross
49,2124.77,NULL,76,visual-search-circle,48,164072,5c9c77127bc68a00124cedcc,3,1,false,cross
50,1348.08,NULL,65,visual-search-circle,49,166729,5c9c77127bc68a00124cedcc,3,1,true,cross
51,1534.82,NULL,65,visual-search-circle,50,169571,5c9c77127bc68a00124cedcc,3,1,true,cross
52,2313.81,NULL,65,visual-search-circle,51,173193,5c9c77127bc68a00124cedcc,3,1,true,cross
53,2313.88,NULL,76,visual-search-circle,52,176814,5c9c77127bc68a00124cedcc,3,1,false,cross
54,915.13,NULL,65,visual-search-circle,53,179037,5c9c77127bc68a00124cedcc,3,1,true,cross
55,2517.71,NULL,76,visual-search-circle,54,182863,5c9c77127bc68a00124cedcc,3,1,false,cross
56,3587.79,NULL,76,visual-search-circle,55,187759,5c9c77127bc68a00124cedcc,3,1,false,cross
57,1687.19,NULL,76,visual-search-circle,56,190756,5c9c77127bc68a00124cedcc,3,1,false,cross
58,1453.57,NULL,76,visual-search-circle,57,193518,5c9c77127bc68a00124cedcc,3,,true,cross
59,1918.31,NULL,76,visual-search-circle,58,196745,5c9c77127bc68a00124cedcc,3,1,false,cross
60,1709.3,NULL,76,visual-search-circle,59,199764,5c9c77127bc68a00124cedcc,3,1,false,cross
61,2318.35,NULL,76,visual-search-circle,60,203390,5c9c77127bc68a00124cedcc,3,1,false,cross
62,1604.57,NULL,76,visual-search-circle,61,206303,5c9c77127bc68a00124cedcc,3,,true,cross
63,1681.06,NULL,65,visual-search-circle,62,209293,5c9c77127bc68a00124cedcc,3,1,true,cross
64,12863.3,"<div style='width:800px;'><p>In this set of trials, the mismatching symbol will be presented to you in the center of the screen. You can use it as a reference to find the target.</p><p>Please focus your gaze on the symbol in the center until the symbol set is presented.</p><p>Press any key to continue.</p></div>",65,html-keyboard-response,63,222458,5c9c77127bc68a00124cedcc,3,NULL,NULL,NULL
65,6108.48,"<p>Now you will complete three trials for practice.</p><p>Press the A key if one of the symbols does not match and the L key if they all match.</p><p>Press any key when you are ready to begin.</p>",65,html-keyboard-response,64,228566,5c9c77127bc68a00124cedcc,3,NULL,NULL,NULL
66,2022.81,NULL,65,visual-search-circle,65,231597,5c9c77127bc68a00124cedcc,3,1,true,oddball
67,2220.67,NULL,76,visual-search-circle,66,235125,5c9c77127bc68a00124cedcc,3,,true,oddball
68,1788.76,NULL,65,visual-search-circle,67,238221,5c9c77127bc68a00124cedcc,3,1,true,oddball
69,5037.21,"<p>Now you will proceed to the test trials.</p><p>Press the A key if one of the symbols does not match and the L key if they all match.</p><p>Press any key when you are ready to begin.</p>",65,html-keyboard-response,68,243560,5c9c77127bc68a00124cedcc,3,NULL,NULL,NULL
70,1294.48,NULL,76,visual-search-circle,69,245863,5c9c77127bc68a00124cedcc,3,,true,oddball
71,1497.95,NULL,65,visual-search-circle,70,248669,5c9c77127bc68a00124cedcc,3,1,true,oddball
72,1782.52,NULL,65,visual-search-circle,71,251760,5c9c77127bc68a00124cedcc,3,,false,oddball
73,765.44,NULL,65,visual-search-circle,72,253835,5c9c77127bc68a00124cedcc,3,1,true,oddball
74,1536.49,NULL,65,visual-search-circle,73,256679,5c9c77127bc68a00124cedcc,3,,false,oddball
75,2772.13,NULL,65,visual-search-circle,74,260759,5c9c77127bc68a00124cedcc,3,1,true,oddball
76,4693.97,NULL,65,visual-search-circle,75,266763,5c9c77127bc68a00124cedcc,3,1,true,oddball
77,4845.42,NULL,76,visual-search-circle,76,272917,5c9c77127bc68a00124cedcc,3,,true,oddball
78,6213.33,NULL,76,visual-search-circle,77,280437,5c9c77127bc68a00124cedcc,3,1,false,oddball
79,5716.2,NULL,65,visual-search-circle,78,287463,5c9c77127bc68a00124cedcc,3,1,true,oddball
80,4402.05,NULL,65,visual-search-circle,79,293173,5c9c77127bc68a00124cedcc,3,,false,oddball
81,3085.19,NULL,76,visual-search-circle,80,297564,5c9c77127bc68a00124cedcc,3,1,false,oddball
82,4191.65,NULL,65,visual-search-circle,81,303063,5c9c77127bc68a00124cedcc,3,,false,oddball
83,2741.33,NULL,76,visual-search-circle,82,307112,5c9c77127bc68a00124cedcc,3,,true,oddball
84,4357.08,NULL,65,visual-search-circle,83,312778,5c9c77127bc68a00124cedcc,3,,false,oddball
85,3481.66,NULL,76,visual-search-circle,84,317567,5c9c77127bc68a00124cedcc,3,1,false,oddball
86,2947.5,NULL,76,visual-search-circle,85,321822,5c9c77127bc68a00124cedcc,3,,true,oddball
87,2472.14,NULL,76,visual-search-circle,86,325604,5c9c77127bc68a00124cedcc,3,1,false,oddball
88,2769.45,NULL,76,visual-search-circle,87,329681,5c9c77127bc68a00124cedcc,3,1,false,oddball
89,1906.37,NULL,65,visual-search-circle,88,332895,5c9c77127bc68a00124cedcc,3,1,true,oddball
90,2347.48,NULL,65,visual-search-circle,89,336550,5c9c77127bc68a00124cedcc,3,,false,oddball
91,2369.89,NULL,76,visual-search-circle,90,340229,5c9c77127bc68a00124cedcc,3,1,false,oddball
92,3032.35,NULL,65,visual-search-circle,91,344570,5c9c77127bc68a00124cedcc,3,,false,oddball
93,1774.08,NULL,65,visual-search-circle,92,347652,5c9c77127bc68a00124cedcc,3,1,true,oddball
94,1394.56,NULL,65,visual-search-circle,93,350354,5c9c77127bc68a00124cedcc,3,1,true,oddball
95,3297.09,NULL,76,visual-search-circle,94,354959,5c9c77127bc68a00124cedcc,3,,true,oddball
96,10080.3,"<div style='width:800px;'><p>Now the symbols will switch, where the target symbol will now be the nontarget and vice versa.</p><p>The rest of the procedure will remain the same for the next chunk of trials, so please continue to press the A key if one of the symbols does not match and the L key if they are all the same.</p><p>Press any key when you are ready to continue.</p></div>",65,html-keyboard-response,95,365341,5c9c77127bc68a00124cedcc,3,NULL,NULL,NULL
97,2875.14,NULL,65,visual-search-circle,96,369224,5c9c77127bc68a00124cedcc,3,1,true,oddball
98,3404.38,NULL,65,visual-search-circle,97,373937,5c9c77127bc68a00124cedcc,3,1,true,oddball
99,4248.43,NULL,76,visual-search-circle,98,379493,5c9c77127bc68a00124cedcc,3,1,false,oddball
100,949.415,NULL,76,visual-search-circle,99,381750,5c9c77127bc68a00124cedcc,3,,true,oddball
101,3043.64,NULL,65,visual-search-circle,100,386101,5c9c77127bc68a00124cedcc,3,1,true,oddball
102,1992.31,NULL,76,visual-search-circle,101,389402,5c9c77127bc68a00124cedcc,3,1,false,oddball
103,1920.83,NULL,76,visual-search-circle,102,392632,5c9c77127bc68a00124cedcc,3,,true,oddball
104,2740.39,NULL,76,visual-search-circle,103,396679,5c9c77127bc68a00124cedcc,3,1,false,oddball
105,3632.41,NULL,76,visual-search-circle,104,401620,5c9c77127bc68a00124cedcc,3,1,false,oddball
106,990.515,NULL,65,visual-search-circle,105,403919,5c9c77127bc68a00124cedcc,3,1,true,oddball
107,2692.81,NULL,76,visual-search-circle,106,407920,5c9c77127bc68a00124cedcc,3,1,false,oddball
108,881.6,NULL,65,visual-search-circle,107,410110,5c9c77127bc68a00124cedcc,3,1,true,oddball
109,2756.24,NULL,76,visual-search-circle,108,414174,5c9c77127bc68a00124cedcc,3,1,false,oddball
110,1900.29,NULL,65,visual-search-circle,109,417381,5c9c77127bc68a00124cedcc,3,1,true,oddball
111,2207.44,NULL,65,visual-search-circle,110,420896,5c9c77127bc68a00124cedcc,3,1,true,oddball
112,3077.33,NULL,76,visual-search-circle,111,425282,5c9c77127bc68a00124cedcc,3,1,false,oddball
113,2221.21,NULL,65,visual-search-circle,112,428811,5c9c77127bc68a00124cedcc,3,,false,oddball
114,2462.45,NULL,65,visual-search-circle,113,432581,5c9c77127bc68a00124cedcc,3,1,true,oddball
115,2463.36,NULL,76,visual-search-circle,114,436352,5c9c77127bc68a00124cedcc,3,1,false,oddball
116,2360.21,NULL,76,visual-search-circle,115,440021,5c9c77127bc68a00124cedcc,3,1,false,oddball
117,2225.73,NULL,65,visual-search-circle,116,443555,5c9c77127bc68a00124cedcc,3,1,true,oddball
118,3714.86,NULL,65,visual-search-circle,117,448579,5c9c77127bc68a00124cedcc,3,,false,oddball
119,2012.23,NULL,76,visual-search-circle,118,451900,5c9c77127bc68a00124cedcc,3,1,false,oddball
120,3270.38,NULL,65,visual-search-circle,119,456479,5c9c77127bc68a00124cedcc,3,1,true,oddball
121,3745.33,NULL,76,visual-search-circle,120,461533,5c9c77127bc68a00124cedcc,3,1,false,oddball
122,2963.54,NULL,65,visual-search-circle,121,465805,5c9c77127bc68a00124cedcc,3,1,true,oddball
123,12327.9,"<div style='width:800px;'><p>The stimuli used in this experiment could have been conceptualized as alpha-numeric symbols such as rotated 2s and 5s or Us and Ns. In your trials, did you use any alpha-numeric symbols such as these to help you identify the symbols?</p><p>Press the key A for Yes. Press the key L for No. </p></div>",65,html-keyboard-response,122,478434,5c9c77127bc68a00124cedcc,3,NULL,NULL,NULL
124,2421.83,"<p>Welcome to the experiment. Press any key to get started.</p>",71,html-keyboard-response,0,2424,5e95f0222ba0220532d5d682,3,NULL,NULL,NULL
125,9548.99,"<div style='width:800px;'><p>You will see a set of 10 symbols arranged in a circle.</p> <p>Sometimes all of the symbols will match. Other times one of the symbols will be different than the others.</p><p>Press the A key when one symbol is different. Press the L key when all symbols are the same.</p><p>Press any key to continue.</p></div>",76,html-keyboard-response,1,11974,5e95f0222ba0220532d5d682,3,NULL,NULL,NULL
126,3156.95,display1.jpg,65,image-keyboard-response,2,15132,5e95f0222ba0220532d5d682,3,NULL,NULL,NULL
127,1876.91,display2.jpg,76,image-keyboard-response,3,17009,5e95f0222ba0220532d5d682,3,NULL,NULL,NULL
128,12104.4,"<div style='width:800px;'><p>In this set of trials, a fixation cross will be presented to you in the center of the screen.</p><p>Please focus your gaze on the fixation cross in the center until the symbol set is presented.</p><p>Press any key to continue.</p></div>",76,html-keyboard-response,4,29115,5e95f0222ba0220532d5d682,3,NULL,NULL,NULL
129,9838.89,"<p>Now you will complete three trials for practice.</p><p>Press the A key if one of the symbols does not match and the L key if they all match.</p><p>Press any key when you are ready to begin.</p>",76,html-keyboard-response,5,38954,5e95f0222ba0220532d5d682,3,NULL,NULL,NULL
130,6767.62,NULL,76,visual-search-circle,6,46741,5e95f0222ba0220532d5d682,3,1,false,cross
131,6075.67,NULL,76,visual-search-circle,7,54136,5e95f0222ba0220532d5d682,3,1,false,cross
132,6718.33,NULL,76,visual-search-circle,8,62169,5e95f0222ba0220532d5d682,3,1,false,cross
133,3865.85,"<p>Now you will proceed to the test trials.</p><p>Press the A key if one of the symbols does not match and the L key if they all match.</p><p>Press any key when you are ready to begin.</p>",76,html-keyboard-response,9,66343,5e95f0222ba0220532d5d682,3,NULL,NULL,NULL
134,2191.25,NULL,65,visual-search-circle,10,69550,5e95f0222ba0220532d5d682,3,1,true,cross
135,3984.6,NULL,65,visual-search-circle,11,74854,5e95f0222ba0220532d5d682,3,1,true,cross
136,4472.83,NULL,76,visual-search-circle,12,80643,5e95f0222ba0220532d5d682,3,1,false,cross
137,3420.42,NULL,65,visual-search-circle,13,85379,5e95f0222ba0220532d5d682,3,1,true,cross
138,2433.83,NULL,65,visual-search-circle,14,89138,5e95f0222ba0220532d5d682,3,1,true,cross
139,4240.83,NULL,76,visual-search-circle,15,94722,5e95f0222ba0220532d5d682,3,1,false,cross
140,3904.04,NULL,76,visual-search-circle,16,99949,5e95f0222ba0220532d5d682,3,1,false,cross
141,2402.91,NULL,65,visual-search-circle,17,103679,5e95f0222ba0220532d5d682,3,1,true,cross
142,4813.56,NULL,76,visual-search-circle,18,109813,5e95f0222ba0220532d5d682,3,1,false,cross
143,4143.86,NULL,76,visual-search-circle,19,115268,5e95f0222ba0220532d5d682,3,1,false,cross
144,1842.62,NULL,65,visual-search-circle,20,118425,5e95f0222ba0220532d5d682,3,1,true,cross
145,1749.67,NULL,65,visual-search-circle,21,121493,5e95f0222ba0220532d5d682,3,1,true,cross
146,3964.04,NULL,76,visual-search-circle,22,126774,5e95f0222ba0220532d5d682,3,1,false,cross
147,2155.59,NULL,65,visual-search-circle,23,130258,5e95f0222ba0220532d5d682,3,1,true,cross
148,3622.38,NULL,76,visual-search-circle,24,135200,5e95f0222ba0220532d5d682,3,1,false,cross
149,3820.61,NULL,76,visual-search-circle,25,140345,5e95f0222ba0220532d5d682,3,1,false,cross
150,5906.87,NULL,76,visual-search-circle,26,147564,5e95f0222ba0220532d5d682,3,1,false,cross
151,4757.46,NULL,76,visual-search-circle,27,153641,5e95f0222ba0220532d5d682,3,1,false,cross
152,4885.25,NULL,76,visual-search-circle,28,159850,5e95f0222ba0220532d5d682,3,1,false,cross
153,2899.15,NULL,65,visual-search-circle,29,164071,5e95f0222ba0220532d5d682,3,1,true,cross
154,1463.59,NULL,65,visual-search-circle,30,166854,5e95f0222ba0220532d5d682,3,1,true,cross
155,2926.13,NULL,65,visual-search-circle,31,171096,5e95f0222ba0220532d5d682,3,1,true,cross
156,3172.11,NULL,65,visual-search-circle,32,175597,5e95f0222ba0220532d5d682,3,1,true,cross
157,3928.97,NULL,76,visual-search-circle,33,180840,5e95f0222ba0220532d5d682,3,1,false,cross
158,1091.66,NULL,65,visual-search-circle,34,183244,5e95f0222ba0220532d5d682,3,1,true,cross
159,7481.27,NULL,76,visual-search-circle,35,192039,5e95f0222ba0220532d5d682,3,1,false,cross
160,14298.9,"<div style='width:800px;'><p>Now the symbols will switch, where the target symbol will now be the nontarget and vice versa.</p><p>The rest of the procedure will remain the same for the next chunk of trials, so please continue to press the A key if one of the symbols does not match and the L key if they are all the same.</p><p>Press any key when you are ready to continue.</p></div>",76,html-keyboard-response,36,206650,5e95f0222ba0220532d5d682,3,NULL,NULL,NULL
161,6310.1,NULL,65,visual-search-circle,37,213968,5e95f0222ba0220532d5d682,3,1,true,cross
162,3758.84,NULL,76,visual-search-circle,38,219041,5e95f0222ba0220532d5d682,3,1,false,cross
163,1083.7,NULL,65,visual-search-circle,39,221432,5e95f0222ba0220532d5d682,3,1,true,cross
164,4009.73,NULL,76,visual-search-circle,40,226762,5e95f0222ba0220532d5d682,3,1,false,cross
165,2788.79,NULL,76,visual-search-circle,41,230885,5e95f0222ba0220532d5d682,3,1,false,cross
166,2473.48,NULL,76,visual-search-circle,42,234678,5e95f0222ba0220532d5d682,3,1,false,cross
167,2797.89,NULL,76,visual-search-circle,43,238794,5e95f0222ba0220532d5d682,3,1,false,cross
168,3110.78,NULL,76,visual-search-circle,44,243231,5e95f0222ba0220532d5d682,3,1,false,cross
169,2887.84,NULL,76,visual-search-circle,45,247431,5e95f0222ba0220532d5d682,3,1,false,cross
170,1077.7,NULL,65,visual-search-circle,46,249825,5e95f0222ba0220532d5d682,3,1,true,cross
171,2131.83,NULL,65,visual-search-circle,47,253282,5e95f0222ba0220532d5d682,3,1,true,cross
172,3017.69,NULL,76,visual-search-circle,48,257620,5e95f0222ba0220532d5d682,3,1,false,cross
173,4336.9,NULL,76,visual-search-circle,49,263277,5e95f0222ba0220532d5d682,3,1,false,cross
174,4515.69,NULL,76,visual-search-circle,50,269115,5e95f0222ba0220532d5d682,3,1,false,cross
175,1970.71,NULL,65,visual-search-circle,51,272410,5e95f0222ba0220532d5d682,3,1,true,cross
176,2215.18,NULL,65,visual-search-circle,52,275942,5e95f0222ba0220532d5d682,3,1,true,cross
177,3924.51,NULL,76,visual-search-circle,53,281183,5e95f0222ba0220532d5d682,3,1,false,cross
178,967.49,NULL,65,visual-search-circle,54,283470,5e95f0222ba0220532d5d682,3,1,true,cross
179,4084.39,NULL,76,visual-search-circle,55,288882,5e95f0222ba0220532d5d682,3,1,false,cross
180,1180.25,NULL,65,visual-search-circle,56,291385,5e95f0222ba0220532d5d682,3,1,true,cross
181,2661.72,NULL,65,visual-search-circle,57,295371,5e95f0222ba0220532d5d682,3,1,true,cross
182,1398.43,NULL,65,visual-search-circle,58,298083,5e95f0222ba0220532d5d682,3,1,true,cross
183,1040.94,NULL,65,visual-search-circle,59,300437,5e95f0222ba0220532d5d682,3,1,true,cross
184,932.12,NULL,65,visual-search-circle,60,302687,5e95f0222ba0220532d5d682,3,1,true,cross
185,1772,NULL,65,visual-search-circle,61,305767,5e95f0222ba0220532d5d682,3,1,true,cross
186,3232,NULL,76,visual-search-circle,62,310323,5e95f0222ba0220532d5d682,3,1,false,cross
187,10357.2,"<div style='width:800px;'><p>In this set of trials, the mismatching symbol will be presented to you in the center of the screen. You can use it as a reference to find the target.</p><p>Please focus your gaze on the symbol in the center until the symbol set is presented.</p><p>Press any key to continue.</p></div>",76,html-keyboard-response,63,320990,5e95f0222ba0220532d5d682,3,NULL,NULL,NULL
188,4036.45,"<p>Now you will complete three trials for practice.</p><p>Press the A key if one of the symbols does not match and the L key if they all match.</p><p>Press any key when you are ready to begin.</p>",76,html-keyboard-response,64,325027,5e95f0222ba0220532d5d682,3,NULL,NULL,NULL
189,4254.59,NULL,65,visual-search-circle,65,330296,5e95f0222ba0220532d5d682,3,,false,oddball
190,913.84,NULL,65,visual-search-circle,66,332528,5e95f0222ba0220532d5d682,3,,false,oddball
191,750.8,NULL,65,visual-search-circle,67,334598,5e95f0222ba0220532d5d682,3,,false,oddball
192,1469.28,"<p>Now you will proceed to the test trials.</p><p>Press the A key if one of the symbols does not match and the L key if they all match.</p><p>Press any key when you are ready to begin.</p>",65,html-keyboard-response,68,336373,5e95f0222ba0220532d5d682,3,NULL,NULL,NULL
193,810.98,NULL,65,visual-search-circle,69,338199,5e95f0222ba0220532d5d682,3,1,true,oddball
194,598.84,NULL,65,visual-search-circle,70,340115,5e95f0222ba0220532d5d682,3,,false,oddball
195,516.14,NULL,65,visual-search-circle,71,341952,5e95f0222ba0220532d5d682,3,1,true,oddball
196,723.5,NULL,65,visual-search-circle,72,343998,5e95f0222ba0220532d5d682,3,1,true,oddball
197,710.45,NULL,65,visual-search-circle,73,346029,5e95f0222ba0220532d5d682,3,,false,oddball
198,896.6,NULL,65,visual-search-circle,74,348244,5e95f0222ba0220532d5d682,3,,false,oddball
199,798.485,NULL,65,visual-search-circle,75,350368,5e95f0222ba0220532d5d682,3,,false,oddball
200,590.37,NULL,65,visual-search-circle,76,352272,5e95f0222ba0220532d5d682,3,,false,oddball
201,641.85,NULL,65,visual-search-circle,77,354242,5e95f0222ba0220532d5d682,3,1,true,oddball
202,743,NULL,76,visual-search-circle,78,356301,5e95f0222ba0220532d5d682,3,,true,oddball
203,632.92,NULL,65,visual-search-circle,79,358259,5e95f0222ba0220532d5d682,3,,false,oddball
204,689.65,NULL,65,visual-search-circle,80,360278,5e95f0222ba0220532d5d682,3,1,true,oddball
205,773.42,NULL,65,visual-search-circle,81,362381,5e95f0222ba0220532d5d682,3,,false,oddball
206,735.235,NULL,65,visual-search-circle,82,364445,5e95f0222ba0220532d5d682,3,1,true,oddball
207,543.72,NULL,65,visual-search-circle,83,366304,5e95f0222ba0220532d5d682,3,,false,oddball
208,510.615,NULL,65,visual-search-circle,84,368140,5e95f0222ba0220532d5d682,3,1,true,oddball
209,528.055,NULL,65,visual-search-circle,85,369979,5e95f0222ba0220532d5d682,3,,false,oddball
210,550.475,NULL,65,visual-search-circle,86,371862,5e95f0222ba0220532d5d682,3,,false,oddball
211,550.29,NULL,65,visual-search-circle,87,373726,5e95f0222ba0220532d5d682,3,1,true,oddball
212,516.085,NULL,65,visual-search-circle,88,375572,5e95f0222ba0220532d5d682,3,1,true,oddball
213,530.48,NULL,65,visual-search-circle,89,377418,5e95f0222ba0220532d5d682,3,1,true,oddball
214,519.325,NULL,65,visual-search-circle,90,379260,5e95f0222ba0220532d5d682,3,,false,oddball
215,743.835,NULL,65,visual-search-circle,91,381310,5e95f0222ba0220532d5d682,3,1,true,oddball
216,714.535,NULL,65,visual-search-circle,92,383355,5e95f0222ba0220532d5d682,3,1,true,oddball
217,822.87,NULL,65,visual-search-circle,93,385502,5e95f0222ba0220532d5d682,3,,false,oddball
218,606.74,NULL,65,visual-search-circle,94,387420,5e95f0222ba0220532d5d682,3,,false,oddball
219,4353.03,"<div style='width:800px;'><p>Now the symbols will switch, where the target symbol will now be the nontarget and vice versa.</p><p>The rest of the procedure will remain the same for the next chunk of trials, so please continue to press the A key if one of the symbols does not match and the L key if they are all the same.</p><p>Press any key when you are ready to continue.</p></div>",76,html-keyboard-response,95,392074,5e95f0222ba0220532d5d682,3,NULL,NULL,NULL
220,2543.83,NULL,65,visual-search-circle,96,395632,5e95f0222ba0220532d5d682,3,,false,oddball
221,1793.69,NULL,65,visual-search-circle,97,398744,5e95f0222ba0220532d5d682,3,1,true,oddball
222,807.59,NULL,65,visual-search-circle,98,400869,5e95f0222ba0220532d5d682,3,,false,oddball
223,619.995,NULL,65,visual-search-circle,99,402814,5e95f0222ba0220532d5d682,3,1,true,oddball
224,644.395,NULL,65,visual-search-circle,100,404787,5e95f0222ba0220532d5d682,3,1,true,oddball
225,662.86,NULL,76,visual-search-circle,101,406762,5e95f0222ba0220532d5d682,3,,true,oddball
226,560.305,NULL,65,visual-search-circle,102,408646,5e95f0222ba0220532d5d682,3,,false,oddball
227,1071.81,NULL,65,visual-search-circle,103,411031,5e95f0222ba0220532d5d682,3,,false,oddball
228,619.87,NULL,65,visual-search-circle,104,412961,5e95f0222ba0220532d5d682,3,,false,oddball
229,2420.09,NULL,65,visual-search-circle,105,416706,5e95f0222ba0220532d5d682,3,1,true,oddball
230,852.635,NULL,65,visual-search-circle,106,418872,5e95f0222ba0220532d5d682,3,,false,oddball
231,722.445,NULL,65,visual-search-circle,107,420915,5e95f0222ba0220532d5d682,3,1,true,oddball
232,653.465,NULL,65,visual-search-circle,108,422886,5e95f0222ba0220532d5d682,3,,false,oddball
233,544.705,NULL,65,visual-search-circle,109,424751,5e95f0222ba0220532d5d682,3,,false,oddball
234,597.29,NULL,65,visual-search-circle,110,426672,5e95f0222ba0220532d5d682,3,1,true,oddball
235,833.98,NULL,65,visual-search-circle,111,428817,5e95f0222ba0220532d5d682,3,,false,oddball
236,603.675,NULL,65,visual-search-circle,112,430741,5e95f0222ba0220532d5d682,3,1,true,oddball
237,638.95,NULL,65,visual-search-circle,113,432700,5e95f0222ba0220532d5d682,3,1,true,oddball
238,580.53,NULL,65,visual-search-circle,114,434599,5e95f0222ba0220532d5d682,3,1,true,oddball
239,547.06,NULL,65,visual-search-circle,115,436461,5e95f0222ba0220532d5d682,3,,false,oddball
240,1209.07,NULL,65,visual-search-circle,116,438990,5e95f0222ba0220532d5d682,3,1,true,oddball
241,638.28,NULL,65,visual-search-circle,117,440944,5e95f0222ba0220532d5d682,3,1,true,oddball
242,544.725,NULL,65,visual-search-circle,118,442810,5e95f0222ba0220532d5d682,3,,false,oddball
243,555.89,NULL,65,visual-search-circle,119,444675,5e95f0222ba0220532d5d682,3,,false,oddball
244,591.295,NULL,65,visual-search-circle,120,446584,5e95f0222ba0220532d5d682,3,1,true,oddball
245,572.105,NULL,65,visual-search-circle,121,448483,5e95f0222ba0220532d5d682,3,,false,oddball
246,18023.4,"<div style='width:800px;'><p>The stimuli used in this experiment could have been conceptualized as alpha-numeric symbols such as rotated 2s and 5s or Us and Ns. In your trials, did you use any alpha-numeric symbols such as these to help you identify the symbols?</p><p>Press the key A for Yes. Press the key L for No. </p></div>",76,html-keyboard-response,122,466819,5e95f0222ba0220532d5d682,3,NULL,NULL,NULL
247,5063.9,"<p>Welcome to the experiment. Press any key to get started.</p>",39,html-keyboard-response,0,5065,5e96cbf9b1d496150ca1eb02,0,NULL,NULL,NULL
248,14977.4,"<div style='width:800px;'><p>You will see a set of 10 symbols arranged in a circle.</p> <p>Sometimes all of the symbols will match. Other times one of the symbols will be different than the others.</p><p>Press the A key when one symbol is different. Press the L key when all symbols are the same.</p><p>Press any key to continue.</p></div>",65,html-keyboard-response,1,20043,5e96cbf9b1d496150ca1eb02,0,NULL,NULL,NULL
249,5256.04,display1.jpg,65,image-keyboard-response,2,25300,5e96cbf9b1d496150ca1eb02,0,NULL,NULL,NULL
250,2090.45,display2.jpg,76,image-keyboard-response,3,27391,5e96cbf9b1d496150ca1eb02,0,NULL,NULL,NULL
251,17368.1,display3.jpg,50,image-keyboard-response,4,44760,5e96cbf9b1d496150ca1eb02,0,NULL,NULL,NULL
252,8308.74,"<div style='width:800px;'><p>In this set of trials, the mismatching symbol will be presented to you in the center of the screen. You can use it as a reference to find the target.</p><p>Please focus your gaze on the symbol in the center until the symbol set is presented.</p><p>Press any key to continue.</p></div>",50,html-keyboard-response,5,53069,5e96cbf9b1d496150ca1eb02,0,NULL,NULL,NULL
253,5836.19,"<p>Now you will complete three trials for practice.</p><p>Press the A key if one of the symbols does not match and the L key if they all match.</p><p>Press any key when you are ready to begin.</p>",122,html-keyboard-response,6,58906,5e96cbf9b1d496150ca1eb02,0,NULL,NULL,NULL
254,14241,NULL,76,visual-search-circle,7,74152,5e96cbf9b1d496150ca1eb02,0,,true,oddball
255,4692.63,NULL,76,visual-search-circle,8,80150,5e96cbf9b1d496150ca1eb02,0,,true,oddball
256,1875.54,NULL,76,visual-search-circle,9,83331,5e96cbf9b1d496150ca1eb02,0,1,false,oddball
257,12473.8,"<p>Now you will proceed to the test trials.</p><p>Press the A key if one of the symbols does not match and the L key if they all match.</p><p>Press any key when you are ready to begin.</p>",76,html-keyboard-response,10,96106,5e96cbf9b1d496150ca1eb02,0,NULL,NULL,NULL
258,9058.92,NULL,76,visual-search-circle,11,106169,5e96cbf9b1d496150ca1eb02,0,1,false,oddball
259,3484.96,NULL,65,visual-search-circle,12,110960,5e96cbf9b1d496150ca1eb02,0,1,true,oddball
260,2684.21,NULL,76,visual-search-circle,13,114949,5e96cbf9b1d496150ca1eb02,0,1,false,oddball
261,2186.59,NULL,76,visual-search-circle,14,118441,5e96cbf9b1d496150ca1eb02,0,,true,oddball
262,4187.38,NULL,76,visual-search-circle,15,123933,5e96cbf9b1d496150ca1eb02,0,1,false,oddball
263,3972.96,NULL,65,visual-search-circle,16,129212,5e96cbf9b1d496150ca1eb02,0,1,true,oddball
264,9757.72,NULL,65,visual-search-circle,17,140274,5e96cbf9b1d496150ca1eb02,0,1,true,oddball
265,2004.55,NULL,65,visual-search-circle,18,143584,5e96cbf9b1d496150ca1eb02,0,1,true,oddball
266,2661.85,NULL,65,visual-search-circle,19,147551,5e96cbf9b1d496150ca1eb02,0,1,true,oddball
267,4512.79,NULL,76,visual-search-circle,20,153369,5e96cbf9b1d496150ca1eb02,0,,true,oddball
268,3021.2,NULL,76,visual-search-circle,21,157696,5e96cbf9b1d496150ca1eb02,0,1,false,oddball
269,1857.76,NULL,65,visual-search-circle,22,160861,5e96cbf9b1d496150ca1eb02,0,1,true,oddball
270,3152.96,NULL,65,visual-search-circle,23,165318,5e96cbf9b1d496150ca1eb02,0,1,true,oddball
271,2752.43,NULL,65,visual-search-circle,24,169376,5e96cbf9b1d496150ca1eb02,0,1,true,oddball
272,2450.38,NULL,65,visual-search-circle,25,173133,5e96cbf9b1d496150ca1eb02,0,1,true,oddball
273,2958.29,NULL,76,visual-search-circle,26,177396,5e96cbf9b1d496150ca1eb02,0,1,false,oddball
274,5709.6,NULL,76,visual-search-circle,27,184410,5e96cbf9b1d496150ca1eb02,0,1,false,oddball
275,3829.6,NULL,76,visual-search-circle,28,189545,5e96cbf9b1d496150ca1eb02,0,1,false,oddball
276,5097.19,NULL,76,visual-search-circle,29,195948,5e96cbf9b1d496150ca1eb02,0,1,false,oddball
277,2402.46,NULL,76,visual-search-circle,30,199657,5e96cbf9b1d496150ca1eb02,0,,true,oddball
278,4174.33,NULL,76,visual-search-circle,31,205136,5e96cbf9b1d496150ca1eb02,0,1,false,oddball
279,5586.3,NULL,76,visual-search-circle,32,212028,5e96cbf9b1d496150ca1eb02,0,1,false,oddball
280,1327.35,NULL,65,visual-search-circle,33,214660,5e96cbf9b1d496150ca1eb02,0,1,true,oddball
281,3804.73,NULL,76,visual-search-circle,34,219770,5e96cbf9b1d496150ca1eb02,0,1,false,oddball
282,4151.67,NULL,65,visual-search-circle,35,225227,5e96cbf9b1d496150ca1eb02,0,,false,oddball
283,3248.85,NULL,76,visual-search-circle,36,229782,5e96cbf9b1d496150ca1eb02,0,1,false,oddball
284,1844.65,"<div style='width:800px;'><p>Now the symbols will switch, where the target symbol will now be the nontarget and vice versa.</p><p>The rest of the procedure will remain the same for the next chunk of trials, so please continue to press the A key if one of the symbols does not match and the L key if they are all the same.</p><p>Press any key when you are ready to continue.</p></div>",65,html-keyboard-response,37,231928,5e96cbf9b1d496150ca1eb02,0,NULL,NULL,NULL
285,3249.5,NULL,76,visual-search-circle,38,236183,5e96cbf9b1d496150ca1eb02,0,,true,oddball
286,3158.4,NULL,76,visual-search-circle,39,240646,5e96cbf9b1d496150ca1eb02,0,,true,oddball
287,6593.7,NULL,76,visual-search-circle,40,248545,5e96cbf9b1d496150ca1eb02,0,1,false,oddball
288,4016.03,NULL,76,visual-search-circle,41,253866,5e96cbf9b1d496150ca1eb02,0,1,false,oddball
289,1853.28,NULL,65,visual-search-circle,42,257025,5e96cbf9b1d496150ca1eb02,0,1,true,oddball
290,3801.87,NULL,76,visual-search-circle,43,262132,5e96cbf9b1d496150ca1eb02,0,1,false,oddball
291,3741.86,NULL,65,visual-search-circle,44,267178,5e96cbf9b1d496150ca1eb02,0,1,true,oddball
292,2603.78,NULL,76,visual-search-circle,45,271087,5e96cbf9b1d496150ca1eb02,0,1,false,oddball
293,1954.43,NULL,76,visual-search-circle,46,274347,5e96cbf9b1d496150ca1eb02,0,1,false,oddball
294,2598.12,NULL,65,visual-search-circle,47,278251,5e96cbf9b1d496150ca1eb02,0,1,true,oddball
295,7866.1,NULL,65,visual-search-circle,48,287424,5e96cbf9b1d496150ca1eb02,0,1,true,oddball
296,1273.95,NULL,65,visual-search-circle,49,290003,5e96cbf9b1d496150ca1eb02,0,1,true,oddball
297,1560.02,NULL,65,visual-search-circle,50,292868,5e96cbf9b1d496150ca1eb02,0,1,true,oddball
298,1131.97,NULL,65,visual-search-circle,51,295305,5e96cbf9b1d496150ca1eb02,0,1,true,oddball
299,1067.42,NULL,76,visual-search-circle,52,297679,5e96cbf9b1d496150ca1eb02,0,,true,oddball
300,2354.04,NULL,65,visual-search-circle,53,301339,5e96cbf9b1d496150ca1eb02,0,1,true,oddball
301,1627.32,NULL,65,visual-search-circle,54,304272,5e96cbf9b1d496150ca1eb02,0,,false,oddball
302,1766.48,NULL,76,visual-search-circle,55,307344,5e96cbf9b1d496150ca1eb02,0,1,false,oddball
303,2618.54,NULL,65,visual-search-circle,56,311267,5e96cbf9b1d496150ca1eb02,0,1,true,oddball
304,2375.42,NULL,76,visual-search-circle,57,314949,5e96cbf9b1d496150ca1eb02,0,1,false,oddball
305,1307.76,NULL,76,visual-search-circle,58,317562,5e96cbf9b1d496150ca1eb02,0,1,false,oddball
306,1823.74,NULL,76,visual-search-circle,59,320691,5e96cbf9b1d496150ca1eb02,0,1,false,oddball
307,2770.89,NULL,76,visual-search-circle,60,324766,5e96cbf9b1d496150ca1eb02,0,1,false,oddball
308,876.04,NULL,65,visual-search-circle,61,326948,5e96cbf9b1d496150ca1eb02,0,1,true,oddball
309,1231.35,NULL,76,visual-search-circle,62,329484,5e96cbf9b1d496150ca1eb02,0,1,false,oddball
310,1893.12,NULL,76,visual-search-circle,63,332682,5e96cbf9b1d496150ca1eb02,0,1,false,oddball
311,7950.9,"<div style='width:800px;'><p>In this set of trials, a fixation cross will be presented to you in the center of the screen.</p><p>Please focus your gaze on the fixation cross in the center until the symbol set is presented.</p><p>Press any key to continue.</p></div>",76,html-keyboard-response,64,340934,5e96cbf9b1d496150ca1eb02,0,NULL,NULL,NULL
312,5950.48,"<p>Now you will complete three trials for practice.</p><p>Press the A key if one of the symbols does not match and the L key if they all match.</p><p>Press any key when you are ready to begin.</p>",76,html-keyboard-response,65,346885,5e96cbf9b1d496150ca1eb02,0,NULL,NULL,NULL
313,30447,NULL,65,visual-search-circle,66,378337,5e96cbf9b1d496150ca1eb02,0,1,true,cross
314,6170.08,NULL,65,visual-search-circle,67,385813,5e96cbf9b1d496150ca1eb02,0,1,true,cross
315,2448.51,NULL,76,visual-search-circle,68,389566,5e96cbf9b1d496150ca1eb02,0,1,false,cross
316,4134.47,"<p>Now you will proceed to the test trials.</p><p>Press the A key if one of the symbols does not match and the L key if they all match.</p><p>Press any key when you are ready to begin.</p>",76,html-keyboard-response,69,394002,5e96cbf9b1d496150ca1eb02,0,NULL,NULL,NULL
317,3587.35,NULL,65,visual-search-circle,70,398593,5e96cbf9b1d496150ca1eb02,0,1,true,cross
318,1828.69,NULL,76,visual-search-circle,71,401727,5e96cbf9b1d496150ca1eb02,0,1,false,cross
319,3515.26,NULL,76,visual-search-circle,72,406550,5e96cbf9b1d496150ca1eb02,0,1,false,cross
320,1297.04,NULL,76,visual-search-circle,73,409153,5e96cbf9b1d496150ca1eb02,0,1,false,cross
321,1258.14,NULL,65,visual-search-circle,74,411716,5e96cbf9b1d496150ca1eb02,0,1,true,cross
322,2028.93,NULL,76,visual-search-circle,75,415051,5e96cbf9b1d496150ca1eb02,0,1,false,cross
323,1260.82,NULL,65,visual-search-circle,76,417617,5e96cbf9b1d496150ca1eb02,0,1,true,cross
324,1240.22,NULL,76,visual-search-circle,77,420163,5e96cbf9b1d496150ca1eb02,0,1,false,cross
325,1584.57,NULL,76,visual-search-circle,78,423052,5e96cbf9b1d496150ca1eb02,0,,true,cross
326,2737.46,NULL,76,visual-search-circle,79,427094,5e96cbf9b1d496150ca1eb02,0,1,false,cross
327,1140.24,NULL,65,visual-search-circle,80,429540,5e96cbf9b1d496150ca1eb02,0,1,true,cross
328,1392.73,NULL,65,visual-search-circle,81,432237,5e96cbf9b1d496150ca1eb02,0,1,true,cross
329,2024.62,NULL,76,visual-search-circle,82,435568,5e96cbf9b1d496150ca1eb02,0,,true,cross
330,2636.91,NULL,76,visual-search-circle,83,439510,5e96cbf9b1d496150ca1eb02,0,1,false,cross
331,3040.11,NULL,76,visual-search-circle,84,443855,5e96cbf9b1d496150ca1eb02,0,1,false,cross
332,5385.36,NULL,76,visual-search-circle,85,450547,5e96cbf9b1d496150ca1eb02,0,1,false,cross
333,1718.5,NULL,76,visual-search-circle,86,453570,5e96cbf9b1d496150ca1eb02,0,,true,cross
334,3613.42,NULL,65,visual-search-circle,87,458488,5e96cbf9b1d496150ca1eb02,0,1,true,cross
335,1807.44,NULL,76,visual-search-circle,88,461601,5e96cbf9b1d496150ca1eb02,0,1,false,cross
336,2376.32,NULL,76,visual-search-circle,89,465282,5e96cbf9b1d496150ca1eb02,0,1,false,cross
337,1663.62,NULL,65,visual-search-circle,90,468252,5e96cbf9b1d496150ca1eb02,0,1,true,cross
338,1401.2,NULL,76,visual-search-circle,91,470960,5e96cbf9b1d496150ca1eb02,0,1,false,cross
339,1046.05,NULL,65,visual-search-circle,92,473311,5e96cbf9b1d496150ca1eb02,0,1,true,cross
340,1877.61,NULL,65,visual-search-circle,93,476494,5e96cbf9b1d496150ca1eb02,0,1,true,cross
341,2203.11,NULL,65,visual-search-circle,94,480001,5e96cbf9b1d496150ca1eb02,0,1,true,cross
342,2382.71,NULL,76,visual-search-circle,95,483689,5e96cbf9b1d496150ca1eb02,0,1,false,cross
343,10503.8,"<div style='width:800px;'><p>Now the symbols will switch, where the target symbol will now be the nontarget and vice versa.</p><p>The rest of the procedure will remain the same for the next chunk of trials, so please continue to press the A key if one of the symbols does not match and the L key if they are all the same.</p><p>Press any key when you are ready to continue.</p></div>",76,html-keyboard-response,96,494494,5e96cbf9b1d496150ca1eb02,0,NULL,NULL,NULL
344,2407.26,NULL,65,visual-search-circle,97,497906,5e96cbf9b1d496150ca1eb02,0,1,true,cross
345,1682.14,NULL,65,visual-search-circle,98,500893,5e96cbf9b1d496150ca1eb02,0,1,true,cross
346,1793.44,NULL,65,visual-search-circle,99,503993,5e96cbf9b1d496150ca1eb02,0,1,true,cross
347,2189.84,NULL,76,visual-search-circle,100,507489,5e96cbf9b1d496150ca1eb02,0,,true,cross
348,1646.22,NULL,65,visual-search-circle,101,510440,5e96cbf9b1d496150ca1eb02,0,1,true,cross
349,1195.03,NULL,76,visual-search-circle,102,512940,5e96cbf9b1d496150ca1eb02,0,,true,cross
350,1754.06,NULL,65,visual-search-circle,103,515999,5e96cbf9b1d496150ca1eb02,0,1,true,cross
351,2490.62,NULL,76,visual-search-circle,104,519794,5e96cbf9b1d496150ca1eb02,0,1,false,cross
352,1649.93,NULL,76,visual-search-circle,105,522750,5e96cbf9b1d496150ca1eb02,0,1,false,cross
353,1437.24,NULL,76,visual-search-circle,106,525493,5e96cbf9b1d496150ca1eb02,0,1,false,cross
354,2361.95,NULL,65,visual-search-circle,107,529161,5e96cbf9b1d496150ca1eb02,0,1,true,cross
355,1094.84,NULL,65,visual-search-circle,108,531562,5e96cbf9b1d496150ca1eb02,0,1,true,cross
356,1421.27,NULL,76,visual-search-circle,109,534288,5e96cbf9b1d496150ca1eb02,0,1,false,cross
357,2114.97,NULL,76,visual-search-circle,110,537708,5e96cbf9b1d496150ca1eb02,0,1,false,cross
358,2992.18,NULL,76,visual-search-circle,111,542007,5e96cbf9b1d496150ca1eb02,0,1,false,cross
359,1571.98,NULL,76,visual-search-circle,112,544885,5e96cbf9b1d496150ca1eb02,0,1,false,cross
360,985.13,NULL,65,visual-search-circle,113,547175,5e96cbf9b1d496150ca1eb02,0,1,true,cross
361,1127.46,NULL,76,visual-search-circle,114,549607,5e96cbf9b1d496150ca1eb02,0,1,false,cross
362,1174.27,NULL,76,visual-search-circle,115,552087,5e96cbf9b1d496150ca1eb02,0,1,false,cross
363,1076.94,NULL,76,visual-search-circle,116,554469,5e96cbf9b1d496150ca1eb02,0,,true,cross
364,1073.24,NULL,65,visual-search-circle,117,556848,5e96cbf9b1d496150ca1eb02,0,1,true,cross
365,1092.19,NULL,76,visual-search-circle,118,559246,5e96cbf9b1d496150ca1eb02,0,1,false,cross
366,1418.34,NULL,76,visual-search-circle,119,561969,5e96cbf9b1d496150ca1eb02,0,1,false,cross
367,1308.35,NULL,76,visual-search-circle,120,564584,5e96cbf9b1d496150ca1eb02,0,1,false,cross
368,1341.12,NULL,65,visual-search-circle,121,567231,5e96cbf9b1d496150ca1eb02,0,1,true,cross
369,1809.38,NULL,76,visual-search-circle,122,570345,5e96cbf9b1d496150ca1eb02,0,1,false,cross
370,7112.95,"<p>During the experiment, did you follow the initial instructions to think of the symbols as rotated 2s and 5s?</p><p>Press the key A for Yes. Press the key L for No. </p>",65,html-keyboard-response,123,577760,5e96cbf9b1d496150ca1eb02,0,NULL,NULL,NULL
371,8134.6,"<p>Welcome to the experiment. Press any key to get started.</p>",74,html-keyboard-response,0,8137,5b9cc55cd2599000010ffc36,1,NULL,NULL,NULL
372,10364.2,"<div style='width:800px;'><p>You will see a set of 10 symbols arranged in a circle.</p> <p>Sometimes all of the symbols will match. Other times one of the symbols will be different than the others.</p><p>Press the A key when one symbol is different. Press the L key when all symbols are the same.</p><p>Press any key to continue.</p></div>",17,html-keyboard-response,1,18504,5b9cc55cd2599000010ffc36,1,NULL,NULL,NULL
373,32717.3,display1.jpg,65,image-keyboard-response,2,51224,5b9cc55cd2599000010ffc36,1,NULL,NULL,NULL
374,7588.15,display2.jpg,76,image-keyboard-response,3,58814,5b9cc55cd2599000010ffc36,1,NULL,NULL,NULL
375,17950.1,display3.jpg,50,image-keyboard-response,4,76766,5b9cc55cd2599000010ffc36,1,NULL,NULL,NULL
376,16544.3,"<div style='width:800px;'><p>In this set of trials, a fixation cross will be presented to you in the center of the screen.</p><p>Please focus your gaze on the fixation cross in the center until the symbol set is presented.</p><p>Press any key to continue.</p></div>",87,html-keyboard-response,5,93311,5b9cc55cd2599000010ffc36,1,NULL,NULL,NULL
377,13110.8,"<p>Now you will complete three trials for practice.</p><p>Press the A key if one of the symbols does not match and the L key if they all match.</p><p>Press any key when you are ready to begin.</p>",83,html-keyboard-response,6,106423,5b9cc55cd2599000010ffc36,1,NULL,NULL,NULL
378,5882.9,NULL,76,visual-search-circle,7,113320,5b9cc55cd2599000010ffc36,1,,true,cross
379,18865.2,NULL,76,visual-search-circle,8,133495,5b9cc55cd2599000010ffc36,1,1,false,cross
380,5770.1,NULL,76,visual-search-circle,9,140574,5b9cc55cd2599000010ffc36,1,1,false,cross
381,12932.4,"<p>Now you will proceed to the test trials.</p><p>Press the A key if one of the symbols does not match and the L key if they all match.</p><p>Press any key when you are ready to begin.</p>",76,html-keyboard-response,10,153807,5b9cc55cd2599000010ffc36,1,NULL,NULL,NULL
382,3732.48,NULL,65,visual-search-circle,11,158550,5b9cc55cd2599000010ffc36,1,1,true,cross
383,7409.47,NULL,76,visual-search-circle,12,167271,5b9cc55cd2599000010ffc36,1,1,false,cross
384,4104.44,NULL,65,visual-search-circle,13,172686,5b9cc55cd2599000010ffc36,1,1,true,cross
385,2601.14,NULL,65,visual-search-circle,14,176598,5b9cc55cd2599000010ffc36,1,1,true,cross
386,3904.15,NULL,65,visual-search-circle,15,181813,5b9cc55cd2599000010ffc36,1,1,true,cross
387,6004.04,NULL,76,visual-search-circle,16,189126,5b9cc55cd2599000010ffc36,1,1,false,cross
388,4231.27,NULL,76,visual-search-circle,17,194669,5b9cc55cd2599000010ffc36,1,1,false,cross
389,2524.05,NULL,65,visual-search-circle,18,198505,5b9cc55cd2599000010ffc36,1,1,true,cross
390,5555.77,NULL,76,visual-search-circle,19,205375,5b9cc55cd2599000010ffc36,1,1,false,cross
391,4623.39,NULL,65,visual-search-circle,20,211310,5b9cc55cd2599000010ffc36,1,1,true,cross
392,5851.23,NULL,76,visual-search-circle,21,218471,5b9cc55cd2599000010ffc36,1,1,false,cross
393,5799.4,NULL,76,visual-search-circle,22,225582,5b9cc55cd2599000010ffc36,1,1,false,cross
394,2730.51,NULL,76,visual-search-circle,23,229624,5b9cc55cd2599000010ffc36,1,1,false,cross
395,2871.28,NULL,76,visual-search-circle,24,233806,5b9cc55cd2599000010ffc36,1,1,false,cross
396,2505.54,NULL,65,visual-search-circle,25,237622,5b9cc55cd2599000010ffc36,1,1,true,cross
397,2867.72,NULL,65,visual-search-circle,26,241800,5b9cc55cd2599000010ffc36,1,1,true,cross
398,5303.96,NULL,76,visual-search-circle,27,248414,5b9cc55cd2599000010ffc36,1,1,false,cross
399,4795.49,NULL,65,visual-search-circle,28,254520,5b9cc55cd2599000010ffc36,1,1,true,cross
400,23654.4,NULL,65,visual-search-circle,29,279485,5b9cc55cd2599000010ffc36,1,1,true,cross
401,7124.81,NULL,76,visual-search-circle,30,287918,5b9cc55cd2599000010ffc36,1,1,false,cross
402,4938.88,NULL,76,visual-search-circle,31,294168,5b9cc55cd2599000010ffc36,1,1,false,cross
403,4054.67,NULL,76,visual-search-circle,32,299534,5b9cc55cd2599000010ffc36,1,1,false,cross
404,2149.26,NULL,65,visual-search-circle,33,302990,5b9cc55cd2599000010ffc36,1,1,true,cross
405,1859.29,NULL,65,visual-search-circle,34,306160,5b9cc55cd2599000010ffc36,1,1,true,cross
406,1822.65,NULL,65,visual-search-circle,35,309294,5b9cc55cd2599000010ffc36,1,1,true,cross
407,4181.77,NULL,76,visual-search-circle,36,314782,5b9cc55cd2599000010ffc36,1,1,false,cross
408,24563.8,"<div style='width:800px;'><p>Now the symbols will switch, where the target symbol will now be the nontarget and vice versa.</p><p>The rest of the procedure will remain the same for the next chunk of trials, so please continue to press the A key if one of the symbols does not match and the L key if they are all the same.</p><p>Press any key when you are ready to continue.</p></div>",76,html-keyboard-response,37,339648,5b9cc55cd2599000010ffc36,1,NULL,NULL,NULL
409,7725.35,NULL,65,visual-search-circle,38,348382,5b9cc55cd2599000010ffc36,1,1,true,cross
410,4378.56,NULL,76,visual-search-circle,39,354072,5b9cc55cd2599000010ffc36,1,1,false,cross
411,2049.2,NULL,65,visual-search-circle,40,357430,5b9cc55cd2599000010ffc36,1,1,true,cross
412,5882.46,NULL,76,visual-search-circle,41,364624,5b9cc55cd2599000010ffc36,1,1,false,cross
413,3591.18,NULL,76,visual-search-circle,42,369526,5b9cc55cd2599000010ffc36,1,1,false,cross
414,1945.55,NULL,65,visual-search-circle,43,372782,5b9cc55cd2599000010ffc36,1,1,true,cross
415,3993.45,NULL,76,visual-search-circle,44,378085,5b9cc55cd2599000010ffc36,1,,true,cross
416,8659.25,NULL,65,visual-search-circle,45,388054,5b9cc55cd2599000010ffc36,1,1,true,cross
417,3779.4,NULL,76,visual-search-circle,46,393144,5b9cc55cd2599000010ffc36,1,1,false,cross
418,2631.62,NULL,65,visual-search-circle,47,397085,5b9cc55cd2599000010ffc36,1,1,true,cross
419,2338.12,NULL,76,visual-search-circle,48,400733,5b9cc55cd2599000010ffc36,1,1,false,cross
420,1866.56,NULL,65,visual-search-circle,49,403911,5b9cc55cd2599000010ffc36,1,,false,cross
421,3496.44,NULL,76,visual-search-circle,50,408717,5b9cc55cd2599000010ffc36,1,1,false,cross
422,2986.28,NULL,76,visual-search-circle,51,413014,5b9cc55cd2599000010ffc36,1,1,false,cross
423,2874.03,NULL,76,visual-search-circle,52,417199,5b9cc55cd2599000010ffc36,1,1,false,cross
424,1464.08,NULL,65,visual-search-circle,53,419973,5b9cc55cd2599000010ffc36,1,1,true,cross
425,2729.27,NULL,65,visual-search-circle,54,424013,5b9cc55cd2599000010ffc36,1,1,true,cross
426,2299.97,NULL,65,visual-search-circle,55,427622,5b9cc55cd2599000010ffc36,1,1,true,cross
427,2567.75,NULL,76,visual-search-circle,56,431501,5b9cc55cd2599000010ffc36,1,1,false,cross
428,3084.6,NULL,65,visual-search-circle,57,435893,5b9cc55cd2599000010ffc36,1,1,true,cross
429,4843.47,NULL,76,visual-search-circle,58,442047,5b9cc55cd2599000010ffc36,1,1,false,cross
430,3424.69,NULL,65,visual-search-circle,59,446780,5b9cc55cd2599000010ffc36,1,1,true,cross
431,9708.12,NULL,76,visual-search-circle,60,457799,5b9cc55cd2599000010ffc36,1,1,false,cross
432,5720.18,NULL,76,visual-search-circle,61,464830,5b9cc55cd2599000010ffc36,1,1,false,cross
433,7226.83,NULL,65,visual-search-circle,62,473367,5b9cc55cd2599000010ffc36,1,1,true,cross
434,2352.65,NULL,65,visual-search-circle,63,477030,5b9cc55cd2599000010ffc36,1,1,true,cross
435,25060.4,"<div style='width:800px;'><p>In this set of trials, the mismatching symbol will be presented to you in the center of the screen. You can use it as a reference to find the target.</p><p>Please focus your gaze on the symbol in the center until the symbol set is presented.</p><p>Press any key to continue.</p></div>",76,html-keyboard-response,64,502392,5b9cc55cd2599000010ffc36,1,NULL,NULL,NULL
436,6076.96,"<p>Now you will complete three trials for practice.</p><p>Press the A key if one of the symbols does not match and the L key if they all match.</p><p>Press any key when you are ready to begin.</p>",76,html-keyboard-response,65,508470,5b9cc55cd2599000010ffc36,1,NULL,NULL,NULL
437,3336.61,NULL,76,visual-search-circle,66,512815,5b9cc55cd2599000010ffc36,1,1,false,oddball
438,7649.56,NULL,65,visual-search-circle,67,521774,5b9cc55cd2599000010ffc36,1,,false,oddball
439,6265.14,NULL,65,visual-search-circle,68,529349,5b9cc55cd2599000010ffc36,1,1,true,oddball
440,9891.42,"<p>Now you will proceed to the test trials.</p><p>Press the A key if one of the symbols does not match and the L key if they all match.</p><p>Press any key when you are ready to begin.</p>",76,html-keyboard-response,69,539543,5b9cc55cd2599000010ffc36,1,NULL,NULL,NULL
441,4774.23,NULL,76,visual-search-circle,70,545326,5b9cc55cd2599000010ffc36,1,1,false,oddball
442,3147.5,NULL,65,visual-search-circle,71,549783,5b9cc55cd2599000010ffc36,1,1,true,oddball
443,2174.25,NULL,65,visual-search-circle,72,553270,5b9cc55cd2599000010ffc36,1,1,true,oddball
444,4729.5,NULL,65,visual-search-circle,73,559310,5b9cc55cd2599000010ffc36,1,1,true,oddball
445,3955.74,NULL,76,visual-search-circle,74,564575,5b9cc55cd2599000010ffc36,1,1,false,oddball
446,3648.54,NULL,65,visual-search-circle,75,569534,5b9cc55cd2599000010ffc36,1,1,true,oddball
447,10061.6,NULL,65,visual-search-circle,76,580903,5b9cc55cd2599000010ffc36,1,1,true,oddball
448,4135.3,NULL,76,visual-search-circle,77,586350,5b9cc55cd2599000010ffc36,1,1,false,oddball
449,3626.99,NULL,65,visual-search-circle,78,591286,5b9cc55cd2599000010ffc36,1,1,true,oddball
450,3625.42,NULL,76,visual-search-circle,79,596222,5b9cc55cd2599000010ffc36,1,1,false,oddball
451,4379.15,NULL,76,visual-search-circle,80,601911,5b9cc55cd2599000010ffc36,1,1,false,oddball
452,2567.78,NULL,65,visual-search-circle,81,605797,5b9cc55cd2599000010ffc36,1,1,true,oddball
453,2673.47,NULL,65,visual-search-circle,82,609782,5b9cc55cd2599000010ffc36,1,1,true,oddball
454,2147.63,NULL,65,visual-search-circle,83,613239,5b9cc55cd2599000010ffc36,1,1,true,oddball
455,3873.61,NULL,65,visual-search-circle,84,618422,5b9cc55cd2599000010ffc36,1,1,true,oddball
456,3787.18,NULL,76,visual-search-circle,85,623519,5b9cc55cd2599000010ffc36,1,1,false,oddball
457,2391.34,NULL,76,visual-search-circle,86,627222,5b9cc55cd2599000010ffc36,1,1,false,oddball
458,1961.64,NULL,76,visual-search-circle,87,630493,5b9cc55cd2599000010ffc36,1,1,false,oddball
459,2051.08,NULL,76,visual-search-circle,88,633853,5b9cc55cd2599000010ffc36,1,1,false,oddball
460,4146.92,NULL,76,visual-search-circle,89,639310,5b9cc55cd2599000010ffc36,1,1,false,oddball
461,1816.69,NULL,65,visual-search-circle,90,642438,5b9cc55cd2599000010ffc36,1,1,true,oddball
462,2259.18,NULL,76,visual-search-circle,91,646007,5b9cc55cd2599000010ffc36,1,,true,oddball
463,4544.82,NULL,65,visual-search-circle,92,651862,5b9cc55cd2599000010ffc36,1,1,true,oddball
464,2602.89,NULL,76,visual-search-circle,93,655774,5b9cc55cd2599000010ffc36,1,1,false,oddball
465,4305.5,NULL,76,visual-search-circle,94,661389,5b9cc55cd2599000010ffc36,1,1,false,oddball
466,2098.48,NULL,76,visual-search-circle,95,664798,5b9cc55cd2599000010ffc36,1,1,false,oddball
467,20628.2,"<div style='width:800px;'><p>Now the symbols will switch, where the target symbol will now be the nontarget and vice versa.</p><p>The rest of the procedure will remain the same for the next chunk of trials, so please continue to press the A key if one of the symbols does not match and the L key if they are all the same.</p><p>Press any key when you are ready to continue.</p></div>",76,html-keyboard-response,96,685727,5b9cc55cd2599000010ffc36,1,NULL,NULL,NULL
468,5628.58,NULL,65,visual-search-circle,97,692365,5b9cc55cd2599000010ffc36,1,1,true,oddball
469,3891.24,NULL,76,visual-search-circle,98,697567,5b9cc55cd2599000010ffc36,1,1,false,oddball
470,3047.32,NULL,76,visual-search-circle,99,701926,5b9cc55cd2599000010ffc36,1,1,false,oddball
471,1842.39,NULL,65,visual-search-circle,100,705078,5b9cc55cd2599000010ffc36,1,1,true,oddball
472,2091.27,NULL,76,visual-search-circle,101,708479,5b9cc55cd2599000010ffc36,1,1,false,oddball
473,2062.6,NULL,76,visual-search-circle,102,711854,5b9cc55cd2599000010ffc36,1,,true,oddball
474,1281.81,NULL,65,visual-search-circle,103,714446,5b9cc55cd2599000010ffc36,1,1,true,oddball
475,2689.75,NULL,76,visual-search-circle,104,718446,5b9cc55cd2599000010ffc36,1,1,false,oddball
476,4346.41,NULL,65,visual-search-circle,105,724103,5b9cc55cd2599000010ffc36,1,1,true,oddball
477,2062.4,NULL,65,visual-search-circle,106,727478,5b9cc55cd2599000010ffc36,1,1,true,oddball
478,2773.88,NULL,76,visual-search-circle,107,731558,5b9cc55cd2599000010ffc36,1,,true,oddball
479,2354.26,NULL,65,visual-search-circle,108,735232,5b9cc55cd2599000010ffc36,1,1,true,oddball
480,3063.77,NULL,76,visual-search-circle,109,739606,5b9cc55cd2599000010ffc36,1,,true,oddball
481,3504.83,NULL,76,visual-search-circle,110,744422,5b9cc55cd2599000010ffc36,1,1,false,oddball
482,3740.05,NULL,65,visual-search-circle,111,749471,5b9cc55cd2599000010ffc36,1,1,true,oddball
483,2837.68,NULL,76,visual-search-circle,112,753621,5b9cc55cd2599000010ffc36,1,1,false,oddball
484,2434.64,NULL,76,visual-search-circle,113,757365,5b9cc55cd2599000010ffc36,1,1,false,oddball
485,4449.73,NULL,76,visual-search-circle,114,763127,5b9cc55cd2599000010ffc36,1,1,false,oddball
486,2623.76,NULL,76,visual-search-circle,115,767062,5b9cc55cd2599000010ffc36,1,1,false,oddball
487,2642.55,NULL,76,visual-search-circle,116,771014,5b9cc55cd2599000010ffc36,1,1,false,oddball
488,2123.42,NULL,76,visual-search-circle,117,774447,5b9cc55cd2599000010ffc36,1,1,false,oddball
489,2224.73,NULL,76,visual-search-circle,118,777981,5b9cc55cd2599000010ffc36,1,1,false,oddball
490,3234.91,NULL,76,visual-search-circle,119,782525,5b9cc55cd2599000010ffc36,1,1,false,oddball
491,1538.66,NULL,65,visual-search-circle,120,785374,5b9cc55cd2599000010ffc36,1,1,true,oddball
492,1778.23,NULL,65,visual-search-circle,121,788461,5b9cc55cd2599000010ffc36,1,1,true,oddball
493,2795.82,NULL,65,visual-search-circle,122,792565,5b9cc55cd2599000010ffc36,1,1,true,oddball
494,17331.8,"<p>During the experiment, did you follow the initial instructions to think of the symbols as rotated 2s and 5s?</p><p>Press the key A for Yes. Press the key L for No. </p>",76,html-keyboard-response,123,810199,5b9cc55cd2599000010ffc36,1,NULL,NULL,NULL
495,3949,"<p>Welcome to the experiment. Press any key to get started.</p>",32,html-keyboard-response,0,3957,5be2f8ec64b3000001e8e0f1,1,NULL,NULL,NULL
496,15107,"<div style='width:800px;'><p>You will see a set of 10 symbols arranged in a circle.</p> <p>Sometimes all of the symbols will match. Other times one of the symbols will be different than the others.</p><p>Press the A key when one symbol is different. Press the L key when all symbols are the same.</p><p>Press any key to continue.</p></div>",32,html-keyboard-response,1,19067,5be2f8ec64b3000001e8e0f1,1,NULL,NULL,NULL
497,1350,display1.jpg,65,image-keyboard-response,2,20421,5be2f8ec64b3000001e8e0f1,1,NULL,NULL,NULL
498,1108,display2.jpg,76,image-keyboard-response,3,21533,5be2f8ec64b3000001e8e0f1,1,NULL,NULL,NULL
499,7702,display3.jpg,50,image-keyboard-response,4,29237,5be2f8ec64b3000001e8e0f1,1,NULL,NULL,NULL
500,8371,"<div style='width:800px;'><p>In this set of trials, a fixation cross will be presented to you in the center of the screen.</p><p>Please focus your gaze on the fixation cross in the center until the symbol set is presented.</p><p>Press any key to continue.</p></div>",32,html-keyboard-response,5,37608,5be2f8ec64b3000001e8e0f1,1,NULL,NULL,NULL
501,9543,"<p>Now you will complete three trials for practice.</p><p>Press the A key if one of the symbols does not match and the L key if they all match.</p><p>Press any key when you are ready to begin.</p>",32,html-keyboard-response,6,47153,5be2f8ec64b3000001e8e0f1,1,NULL,NULL,NULL
502,1263,NULL,76,visual-search-circle,7,49439,5be2f8ec64b3000001e8e0f1,1,,true,cross
503,2988,NULL,76,visual-search-circle,8,53740,5be2f8ec64b3000001e8e0f1,1,,true,cross
504,1474,NULL,65,visual-search-circle,9,56527,5be2f8ec64b3000001e8e0f1,1,1,true,cross
505,8652,"<p>Now you will proceed to the test trials.</p><p>Press the A key if one of the symbols does not match and the L key if they all match.</p><p>Press any key when you are ready to begin.</p>",32,html-keyboard-response,10,65483,5be2f8ec64b3000001e8e0f1,1,NULL,NULL,NULL
506,6349,NULL,76,visual-search-circle,11,72841,5be2f8ec64b3000001e8e0f1,1,1,false,cross
507,908,NULL,65,visual-search-circle,12,75073,5be2f8ec64b3000001e8e0f1,1,1,true,cross
508,3435,NULL,76,visual-search-circle,13,79836,5be2f8ec64b3000001e8e0f1,1,1,false,cross
509,3704,NULL,65,visual-search-circle,14,84854,5be2f8ec64b3000001e8e0f1,1,,false,cross
510,1002,NULL,65,visual-search-circle,15,87169,5be2f8ec64b3000001e8e0f1,1,1,true,cross
511,2885,NULL,65,visual-search-circle,16,91365,5be2f8ec64b3000001e8e0f1,1,1,true,cross
512,1451,NULL,65,visual-search-circle,17,94139,5be2f8ec64b3000001e8e0f1,1,,false,cross
513,1955,NULL,65,visual-search-circle,18,97407,5be2f8ec64b3000001e8e0f1,1,1,true,cross
514,2169,NULL,76,visual-search-circle,19,100898,5be2f8ec64b3000001e8e0f1,1,1,false,cross
515,1985,NULL,76,visual-search-circle,20,104203,5be2f8ec64b3000001e8e0f1,1,,true,cross
516,4048,NULL,76,visual-search-circle,21,109569,5be2f8ec64b3000001e8e0f1,1,1,false,cross
517,1348,NULL,65,visual-search-circle,22,112237,5be2f8ec64b3000001e8e0f1,1,1,true,cross
518,1237,NULL,65,visual-search-circle,23,114792,5be2f8ec64b3000001e8e0f1,1,1,true,cross
519,1853,NULL,76,visual-search-circle,24,117955,5be2f8ec64b3000001e8e0f1,1,,true,cross
520,2678,NULL,65,visual-search-circle,25,121947,5be2f8ec64b3000001e8e0f1,1,,false,cross
521,3088,NULL,76,visual-search-circle,26,126360,5be2f8ec64b3000001e8e0f1,1,1,false,cross
522,895,NULL,65,visual-search-circle,27,128574,5be2f8ec64b3000001e8e0f1,1,1,true,cross
523,2312,NULL,76,visual-search-circle,28,132202,5be2f8ec64b3000001e8e0f1,1,,true,cross
524,1176,NULL,65,visual-search-circle,29,134696,5be2f8ec64b3000001e8e0f1,1,1,true,cross
525,1515,NULL,65,visual-search-circle,30,137530,5be2f8ec64b3000001e8e0f1,1,,false,cross
526,3409,NULL,76,visual-search-circle,31,142251,5be2f8ec64b3000001e8e0f1,1,1,false,cross
527,2001,NULL,65,visual-search-circle,32,145561,5be2f8ec64b3000001e8e0f1,1,,false,cross
528,4462,NULL,65,visual-search-circle,33,151340,5be2f8ec64b3000001e8e0f1,1,1,true,cross
529,5844,NULL,76,visual-search-circle,34,158502,5be2f8ec64b3000001e8e0f1,1,1,false,cross
530,1133,NULL,65,visual-search-circle,35,160957,5be2f8ec64b3000001e8e0f1,1,1,true,cross
531,4747,NULL,65,visual-search-circle,36,167021,5be2f8ec64b3000001e8e0f1,1,,false,cross
532,12610,"<div style='width:800px;'><p>Now the symbols will switch, where the target symbol will now be the nontarget and vice versa.</p><p>The rest of the procedure will remain the same for the next chunk of trials, so please continue to press the A key if one of the symbols does not match and the L key if they are all the same.</p><p>Press any key when you are ready to continue.</p></div>",32,html-keyboard-response,37,179936,5be2f8ec64b3000001e8e0f1,1,NULL,NULL,NULL
533,6990,NULL,65,visual-search-circle,38,187950,5be2f8ec64b3000001e8e0f1,1,1,true,cross
534,2591,NULL,76,visual-search-circle,39,191855,5be2f8ec64b3000001e8e0f1,1,1,false,cross
535,4542,NULL,76,visual-search-circle,40,197714,5be2f8ec64b3000001e8e0f1,1,1,false,cross
536,3813,NULL,65,visual-search-circle,41,202850,5be2f8ec64b3000001e8e0f1,1,1,true,cross
537,1820,NULL,76,visual-search-circle,42,205981,5be2f8ec64b3000001e8e0f1,1,1,false,cross
538,2388,NULL,76,visual-search-circle,43,209688,5be2f8ec64b3000001e8e0f1,1,,true,cross
539,2574,NULL,65,visual-search-circle,44,213572,5be2f8ec64b3000001e8e0f1,1,1,true,cross
540,4226,NULL,65,visual-search-circle,45,219117,5be2f8ec64b3000001e8e0f1,1,1,true,cross
541,2833,NULL,76,visual-search-circle,46,223259,5be2f8ec64b3000001e8e0f1,1,,true,cross
542,1330,NULL,65,visual-search-circle,47,225898,5be2f8ec64b3000001e8e0f1,1,1,true,cross
543,5231,NULL,76,visual-search-circle,48,232445,5be2f8ec64b3000001e8e0f1,1,1,false,cross
544,3867,NULL,76,visual-search-circle,49,237632,5be2f8ec64b3000001e8e0f1,1,1,false,cross
545,2660,NULL,76,visual-search-circle,50,241609,5be2f8ec64b3000001e8e0f1,1,,true,cross
546,3532,NULL,76,visual-search-circle,51,246448,5be2f8ec64b3000001e8e0f1,1,1,false,cross
547,2357,NULL,76,visual-search-circle,52,250119,5be2f8ec64b3000001e8e0f1,1,,true,cross
548,2848,NULL,76,visual-search-circle,53,254278,5be2f8ec64b3000001e8e0f1,1,1,false,cross
549,1164,NULL,65,visual-search-circle,54,256759,5be2f8ec64b3000001e8e0f1,1,,false,cross
550,3099,NULL,76,visual-search-circle,55,261175,5be2f8ec64b3000001e8e0f1,1,1,false,cross
551,2378,NULL,76,visual-search-circle,56,264877,5be2f8ec64b3000001e8e0f1,1,1,false,cross
552,1194,NULL,65,visual-search-circle,57,267384,5be2f8ec64b3000001e8e0f1,1,1,true,cross
553,2947,NULL,76,visual-search-circle,58,271641,5be2f8ec64b3000001e8e0f1,1,,true,cross
554,2965,NULL,65,visual-search-circle,59,275926,5be2f8ec64b3000001e8e0f1,1,,false,cross
555,3096,NULL,65,visual-search-circle,60,280339,5be2f8ec64b3000001e8e0f1,1,1,true,cross
556,4483,NULL,65,visual-search-circle,61,286136,5be2f8ec64b3000001e8e0f1,1,1,true,cross
557,3287,NULL,65,visual-search-circle,62,290735,5be2f8ec64b3000001e8e0f1,1,,false,cross
558,1783,NULL,65,visual-search-circle,63,293829,5be2f8ec64b3000001e8e0f1,1,,false,cross
559,9182,"<div style='width:800px;'><p>In this set of trials, the mismatching symbol will be presented to you in the center of the screen. You can use it as a reference to find the target.</p><p>Please focus your gaze on the symbol in the center until the symbol set is presented.</p><p>Press any key to continue.</p></div>",32,html-keyboard-response,64,303312,5be2f8ec64b3000001e8e0f1,1,NULL,NULL,NULL
560,3697,"<p>Now you will complete three trials for practice.</p><p>Press the A key if one of the symbols does not match and the L key if they all match.</p><p>Press any key when you are ready to begin.</p>",32,html-keyboard-response,65,307010,5be2f8ec64b3000001e8e0f1,1,NULL,NULL,NULL
561,1871,NULL,65,visual-search-circle,66,309901,5be2f8ec64b3000001e8e0f1,1,,false,oddball
562,1900,NULL,65,visual-search-circle,67,313112,5be2f8ec64b3000001e8e0f1,1,1,true,oddball
563,1578,NULL,65,visual-search-circle,68,316009,5be2f8ec64b3000001e8e0f1,1,,false,oddball
564,1480,"<p>Now you will proceed to the test trials.</p><p>Press the A key if one of the symbols does not match and the L key if they all match.</p><p>Press any key when you are ready to begin.</p>",32,html-keyboard-response,69,317790,5be2f8ec64b3000001e8e0f1,1,NULL,NULL,NULL
565,765,NULL,65,visual-search-circle,70,319573,5be2f8ec64b3000001e8e0f1,1,,false,oddball
566,712,NULL,65,visual-search-circle,71,321603,5be2f8ec64b3000001e8e0f1,1,1,true,oddball
567,612,NULL,65,visual-search-circle,72,323522,5be2f8ec64b3000001e8e0f1,1,1,true,oddball
568,643,NULL,65,visual-search-circle,73,325484,5be2f8ec64b3000001e8e0f1,1,,false,oddball
569,1276,NULL,65,visual-search-circle,74,328084,5be2f8ec64b3000001e8e0f1,1,,false,oddball
570,875,NULL,65,visual-search-circle,75,330266,5be2f8ec64b3000001e8e0f1,1,,false,oddball
571,839,NULL,65,visual-search-circle,76,332412,5be2f8ec64b3000001e8e0f1,1,,false,oddball
572,653,NULL,65,visual-search-circle,77,334380,5be2f8ec64b3000001e8e0f1,1,1,true,oddball
573,907,NULL,65,visual-search-circle,78,336602,5be2f8ec64b3000001e8e0f1,1,1,true,oddball
574,699,NULL,65,visual-search-circle,79,338613,5be2f8ec64b3000001e8e0f1,1,,false,oddball
575,2230,NULL,65,visual-search-circle,80,342152,5be2f8ec64b3000001e8e0f1,1,1,true,oddball
576,568,NULL,65,visual-search-circle,81,344033,5be2f8ec64b3000001e8e0f1,1,,false,oddball
577,658,NULL,65,visual-search-circle,82,346010,5be2f8ec64b3000001e8e0f1,1,,false,oddball
578,1005,NULL,65,visual-search-circle,83,348333,5be2f8ec64b3000001e8e0f1,1,1,true,oddball
579,608,NULL,65,visual-search-circle,84,350256,5be2f8ec64b3000001e8e0f1,1,,false,oddball
580,406,NULL,65,visual-search-circle,85,351980,5be2f8ec64b3000001e8e0f1,1,1,true,oddball
581,2326,NULL,65,visual-search-circle,86,355619,5be2f8ec64b3000001e8e0f1,1,1,true,oddball
582,622,NULL,65,visual-search-circle,87,357556,5be2f8ec64b3000001e8e0f1,1,,false,oddball
583,540,NULL,65,visual-search-circle,88,359409,5be2f8ec64b3000001e8e0f1,1,,false,oddball
584,630,NULL,65,visual-search-circle,89,361355,5be2f8ec64b3000001e8e0f1,1,1,true,oddball
585,771,NULL,65,visual-search-circle,90,363436,5be2f8ec64b3000001e8e0f1,1,1,true,oddball
586,654,NULL,65,visual-search-circle,91,365408,5be2f8ec64b3000001e8e0f1,1,1,true,oddball
587,470,NULL,65,visual-search-circle,92,367190,5be2f8ec64b3000001e8e0f1,1,,false,oddball
588,488,NULL,65,visual-search-circle,93,368988,5be2f8ec64b3000001e8e0f1,1,1,true,oddball
589,1047,NULL,65,visual-search-circle,94,371353,5be2f8ec64b3000001e8e0f1,1,,false,oddball
590,627,NULL,65,visual-search-circle,95,373291,5be2f8ec64b3000001e8e0f1,1,1,true,oddball
591,1085,"<div style='width:800px;'><p>Now the symbols will switch, where the target symbol will now be the nontarget and vice versa.</p><p>The rest of the procedure will remain the same for the next chunk of trials, so please continue to press the A key if one of the symbols does not match and the L key if they are all the same.</p><p>Press any key when you are ready to continue.</p></div>",32,html-keyboard-response,96,374679,5be2f8ec64b3000001e8e0f1,1,NULL,NULL,NULL
592,1077,NULL,65,visual-search-circle,97,376772,5be2f8ec64b3000001e8e0f1,1,,false,oddball
593,1134,NULL,65,visual-search-circle,98,379213,5be2f8ec64b3000001e8e0f1,1,1,true,oddball
594,1256,NULL,65,visual-search-circle,99,381777,5be2f8ec64b3000001e8e0f1,1,,false,oddball
595,655,NULL,65,visual-search-circle,100,383747,5be2f8ec64b3000001e8e0f1,1,1,true,oddball
596,732,NULL,65,visual-search-circle,101,385791,5be2f8ec64b3000001e8e0f1,1,1,true,oddball
597,677,NULL,65,visual-search-circle,102,387780,5be2f8ec64b3000001e8e0f1,1,1,true,oddball
598,782,NULL,65,visual-search-circle,103,389881,5be2f8ec64b3000001e8e0f1,1,,false,oddball
599,555,NULL,65,visual-search-circle,104,391756,5be2f8ec64b3000001e8e0f1,1,1,true,oddball
600,534,NULL,65,visual-search-circle,105,393597,5be2f8ec64b3000001e8e0f1,1,,false,oddball
601,423,NULL,65,visual-search-circle,106,395330,5be2f8ec64b3000001e8e0f1,1,1,true,oddball
602,526,NULL,65,visual-search-circle,107,397169,5be2f8ec64b3000001e8e0f1,1,1,true,oddball
603,476,NULL,65,visual-search-circle,108,398952,5be2f8ec64b3000001e8e0f1,1,,false,oddball
604,643,NULL,65,visual-search-circle,109,400911,5be2f8ec64b3000001e8e0f1,1,1,true,oddball
605,436,NULL,65,visual-search-circle,110,402657,5be2f8ec64b3000001e8e0f1,1,1,true,oddball
606,463,NULL,65,visual-search-circle,111,404436,5be2f8ec64b3000001e8e0f1,1,,false,oddball
607,322,NULL,65,visual-search-circle,112,406074,5be2f8ec64b3000001e8e0f1,1,,false,oddball
608,474,NULL,65,visual-search-circle,113,407856,5be2f8ec64b3000001e8e0f1,1,,false,oddball
609,669,NULL,65,visual-search-circle,114,409833,5be2f8ec64b3000001e8e0f1,1,1,true,oddball
610,909,NULL,65,visual-search-circle,115,412059,5be2f8ec64b3000001e8e0f1,1,1,true,oddball
611,569,NULL,65,visual-search-circle,116,413954,5be2f8ec64b3000001e8e0f1,1,,false,oddball
612,484,NULL,65,visual-search-circle,117,415749,5be2f8ec64b3000001e8e0f1,1,,false,oddball
613,554,NULL,65,visual-search-circle,118,417613,5be2f8ec64b3000001e8e0f1,1,,false,oddball
614,402,NULL,65,visual-search-circle,119,419333,5be2f8ec64b3000001e8e0f1,1,1,true,oddball
615,774,NULL,65,visual-search-circle,120,421430,5be2f8ec64b3000001e8e0f1,1,1,true,oddball
616,1249,NULL,65,visual-search-circle,121,423998,5be2f8ec64b3000001e8e0f1,1,,false,oddball
617,682,NULL,65,visual-search-circle,122,425989,5be2f8ec64b3000001e8e0f1,1,,false,oddball
618,7792,"<p>During the experiment, did you follow the initial instructions to think of the symbols as rotated 2s and 5s?</p><p>Press the key A for Yes. Press the key L for No. </p>",76,html-keyboard-response,123,434084,5be2f8ec64b3000001e8e0f1,1,NULL,NULL,NULL
619,2543.27,"<p>Welcome to the experiment. Press any key to get started.</p>",72,html-keyboard-response,0,2546,5e60db57fdef8001c1fdc6f7,0,NULL,NULL,NULL
620,15966.6,"<div style='width:800px;'><p>You will see a set of 10 symbols arranged in a circle.</p> <p>Sometimes all of the symbols will match. Other times one of the symbols will be different than the others.</p><p>Press the A key when one symbol is different. Press the L key when all symbols are the same.</p><p>Press any key to continue.</p></div>",76,html-keyboard-response,1,18513,5e60db57fdef8001c1fdc6f7,0,NULL,NULL,NULL
621,3534.68,display1.jpg,65,image-keyboard-response,2,22049,5e60db57fdef8001c1fdc6f7,0,NULL,NULL,NULL
622,1782.94,display2.jpg,76,image-keyboard-response,3,23833,5e60db57fdef8001c1fdc6f7,0,NULL,NULL,NULL
623,11263.4,display3.jpg,50,image-keyboard-response,4,35097,5e60db57fdef8001c1fdc6f7,0,NULL,NULL,NULL
624,6583.16,"<div style='width:800px;'><p>In this set of trials, the mismatching symbol will be presented to you in the center of the screen. You can use it as a reference to find the target.</p><p>Please focus your gaze on the symbol in the center until the symbol set is presented.</p><p>Press any key to continue.</p></div>",65,html-keyboard-response,5,41681,5e60db57fdef8001c1fdc6f7,0,NULL,NULL,NULL
625,4407.85,"<p>Now you will complete three trials for practice.</p><p>Press the A key if one of the symbols does not match and the L key if they all match.</p><p>Press any key when you are ready to begin.</p>",65,html-keyboard-response,6,46089,5e60db57fdef8001c1fdc6f7,0,NULL,NULL,NULL
626,3896.47,NULL,65,visual-search-circle,7,50993,5e60db57fdef8001c1fdc6f7,0,,false,oddball
627,2436.69,NULL,76,visual-search-circle,8,54736,5e60db57fdef8001c1fdc6f7,0,,true,oddball
628,1813.58,NULL,76,visual-search-circle,9,57857,5e60db57fdef8001c1fdc6f7,0,1,false,oddball
629,3202.64,"<p>Now you will proceed to the test trials.</p><p>Press the A key if one of the symbols does not match and the L key if they all match.</p><p>Press any key when you are ready to begin.</p>",65,html-keyboard-response,10,61361,5e60db57fdef8001c1fdc6f7,0,NULL,NULL,NULL
630,2401.64,NULL,76,visual-search-circle,11,64769,5e60db57fdef8001c1fdc6f7,0,,true,oddball
631,5373.69,NULL,76,visual-search-circle,12,71449,5e60db57fdef8001c1fdc6f7,0,1,false,oddball
632,8508.41,NULL,65,visual-search-circle,13,81264,5e60db57fdef8001c1fdc6f7,0,,false,oddball
633,6725.06,NULL,65,visual-search-circle,14,89297,5e60db57fdef8001c1fdc6f7,0,,false,oddball
634,4756.54,NULL,65,visual-search-circle,15,95360,5e60db57fdef8001c1fdc6f7,0,,false,oddball
635,1693.23,NULL,76,visual-search-circle,16,98360,5e60db57fdef8001c1fdc6f7,0,,true,oddball
636,6173.69,NULL,65,visual-search-circle,17,105841,5e60db57fdef8001c1fdc6f7,0,,false,oddball
637,4324.92,NULL,76,visual-search-circle,18,111472,5e60db57fdef8001c1fdc6f7,0,,true,oddball
638,2372.82,NULL,76,visual-search-circle,19,115152,5e60db57fdef8001c1fdc6f7,0,,true,oddball
639,4365.53,NULL,65,visual-search-circle,20,120825,5e60db57fdef8001c1fdc6f7,0,,false,oddball
640,3645.36,NULL,65,visual-search-circle,21,125777,5e60db57fdef8001c1fdc6f7,0,,false,oddball
641,1430.28,NULL,76,visual-search-circle,22,128513,5e60db57fdef8001c1fdc6f7,0,,true,oddball
642,3581.7,NULL,65,visual-search-circle,23,133401,5e60db57fdef8001c1fdc6f7,0,,false,oddball
643,2949.65,NULL,65,visual-search-circle,24,137657,5e60db57fdef8001c1fdc6f7,0,1,true,oddball
644,6940.96,NULL,65,visual-search-circle,25,145905,5e60db57fdef8001c1fdc6f7,0,,false,oddball
645,2909.94,NULL,65,visual-search-circle,26,150121,5e60db57fdef8001c1fdc6f7,0,,false,oddball
646,2500.72,NULL,76,visual-search-circle,27,153929,5e60db57fdef8001c1fdc6f7,0,,true,oddball
647,1949.24,NULL,76,visual-search-circle,28,157185,5e60db57fdef8001c1fdc6f7,0,,true,oddball
648,4204.65,NULL,65,visual-search-circle,29,162697,5e60db57fdef8001c1fdc6f7,0,,false,oddball
649,3221.46,NULL,76,visual-search-circle,30,167225,5e60db57fdef8001c1fdc6f7,0,,true,oddball
650,3364.58,NULL,76,visual-search-circle,31,171897,5e60db57fdef8001c1fdc6f7,0,,true,oddball
651,3149.76,NULL,76,visual-search-circle,32,176353,5e60db57fdef8001c1fdc6f7,0,,true,oddball
652,3917.35,NULL,76,visual-search-circle,33,181577,5e60db57fdef8001c1fdc6f7,0,,true,oddball
653,2852.34,NULL,65,visual-search-circle,34,185737,5e60db57fdef8001c1fdc6f7,0,,false,oddball
654,2884.43,NULL,65,visual-search-circle,35,189928,5e60db57fdef8001c1fdc6f7,0,,false,oddball
655,2182.04,NULL,76,visual-search-circle,36,193416,5e60db57fdef8001c1fdc6f7,0,,true,oddball
656,27490.9,"<div style='width:800px;'><p>Now the symbols will switch, where the target symbol will now be the nontarget and vice versa.</p><p>The rest of the procedure will remain the same for the next chunk of trials, so please continue to press the A key if one of the symbols does not match and the L key if they are all the same.</p><p>Press any key when you are ready to continue.</p></div>",65,html-keyboard-response,37,221209,5e60db57fdef8001c1fdc6f7,0,NULL,NULL,NULL
657,6624.57,NULL,65,visual-search-circle,38,228840,5e60db57fdef8001c1fdc6f7,0,1,true,oddball
658,15669.6,NULL,65,visual-search-circle,39,245816,5e60db57fdef8001c1fdc6f7,0,1,true,oddball
659,6301.27,NULL,65,visual-search-circle,40,253424,5e60db57fdef8001c1fdc6f7,0,1,true,oddball
660,8653.58,NULL,65,visual-search-circle,41,263384,5e60db57fdef8001c1fdc6f7,0,1,true,oddball
661,6124.6,NULL,65,visual-search-circle,42,270816,5e60db57fdef8001c1fdc6f7,0,1,true,oddball
662,6628.84,NULL,65,visual-search-circle,43,278752,5e60db57fdef8001c1fdc6f7,0,1,true,oddball
663,3268.31,NULL,65,visual-search-circle,44,283328,5e60db57fdef8001c1fdc6f7,0,,false,oddball
664,1940.54,NULL,65,visual-search-circle,45,286576,5e60db57fdef8001c1fdc6f7,0,1,true,oddball
665,5581.48,NULL,65,visual-search-circle,46,293464,5e60db57fdef8001c1fdc6f7,0,,false,oddball
666,5787.51,NULL,76,visual-search-circle,47,300560,5e60db57fdef8001c1fdc6f7,0,1,false,oddball
667,2102,NULL,65,visual-search-circle,48,303968,5e60db57fdef8001c1fdc6f7,0,,false,oddball
668,7331.42,NULL,65,visual-search-circle,49,312608,5e60db57fdef8001c1fdc6f7,0,,false,oddball
669,5975.38,NULL,76,visual-search-circle,50,319889,5e60db57fdef8001c1fdc6f7,0,,true,oddball
670,3964.68,NULL,65,visual-search-circle,51,325161,5e60db57fdef8001c1fdc6f7,0,1,true,oddball
671,4539.79,NULL,65,visual-search-circle,52,331008,5e60db57fdef8001c1fdc6f7,0,,false,oddball
672,4821.37,NULL,65,visual-search-circle,53,337136,5e60db57fdef8001c1fdc6f7,0,,false,oddball
673,1277.09,NULL,65,visual-search-circle,54,339721,5e60db57fdef8001c1fdc6f7,0,,false,oddball
674,1077.04,NULL,76,visual-search-circle,55,342104,5e60db57fdef8001c1fdc6f7,0,,true,oddball
675,797.335,NULL,65,visual-search-circle,56,344208,5e60db57fdef8001c1fdc6f7,0,1,true,oddball
676,1068.72,NULL,65,visual-search-circle,57,346584,5e60db57fdef8001c1fdc6f7,0,1,true,oddball
677,4660.68,NULL,76,visual-search-circle,58,352552,5e60db57fdef8001c1fdc6f7,0,1,false,oddball
678,5675.9,NULL,65,visual-search-circle,59,359536,5e60db57fdef8001c1fdc6f7,0,1,true,oddball
679,2350.6,NULL,65,visual-search-circle,60,363192,5e60db57fdef8001c1fdc6f7,0,,false,oddball
680,3893.33,NULL,65,visual-search-circle,61,368392,5e60db57fdef8001c1fdc6f7,0,,false,oddball
681,4252.92,NULL,65,visual-search-circle,62,373951,5e60db57fdef8001c1fdc6f7,0,,false,oddball
682,3244.47,NULL,65,visual-search-circle,63,378503,5e60db57fdef8001c1fdc6f7,0,,false,oddball
683,6746.8,"<div style='width:800px;'><p>In this set of trials, a fixation cross will be presented to you in the center of the screen.</p><p>Please focus your gaze on the fixation cross in the center until the symbol set is presented.</p><p>Press any key to continue.</p></div>",65,html-keyboard-response,64,385551,5e60db57fdef8001c1fdc6f7,0,NULL,NULL,NULL
684,11327.7,"<p>Now you will complete three trials for practice.</p><p>Press the A key if one of the symbols does not match and the L key if they all match.</p><p>Press any key when you are ready to begin.</p>",65,html-keyboard-response,65,396879,5e60db57fdef8001c1fdc6f7,0,NULL,NULL,NULL
685,4649.44,NULL,65,visual-search-circle,66,402535,5e60db57fdef8001c1fdc6f7,0,1,true,cross
686,3325.57,NULL,76,visual-search-circle,67,407167,5e60db57fdef8001c1fdc6f7,0,1,false,cross
687,948.85,NULL,65,visual-search-circle,68,409423,5e60db57fdef8001c1fdc6f7,0,1,true,cross
688,2410.06,"<p>Now you will proceed to the test trials.</p><p>Press the A key if one of the symbols does not match and the L key if they all match.</p><p>Press any key when you are ready to begin.</p>",65,html-keyboard-response,69,412135,5e60db57fdef8001c1fdc6f7,0,NULL,NULL,NULL
689,1441.45,NULL,76,visual-search-circle,70,414583,5e60db57fdef8001c1fdc6f7,0,,true,cross
690,2005.65,NULL,76,visual-search-circle,71,417895,5e60db57fdef8001c1fdc6f7,0,1,false,cross
691,1413.11,NULL,65,visual-search-circle,72,420615,5e60db57fdef8001c1fdc6f7,0,1,true,cross
692,955.325,NULL,65,visual-search-circle,73,422879,5e60db57fdef8001c1fdc6f7,0,1,true,cross
693,1179.65,NULL,76,visual-search-circle,74,425367,5e60db57fdef8001c1fdc6f7,0,1,false,cross
694,1493.25,NULL,76,visual-search-circle,75,428167,5e60db57fdef8001c1fdc6f7,0,1,false,cross
695,812.675,NULL,65,visual-search-circle,76,430287,5e60db57fdef8001c1fdc6f7,0,1,true,cross
696,1390.13,NULL,76,visual-search-circle,77,432983,5e60db57fdef8001c1fdc6f7,0,1,false,cross
697,3011.71,NULL,65,visual-search-circle,78,437304,5e60db57fdef8001c1fdc6f7,0,1,true,cross
698,1590.1,NULL,76,visual-search-circle,79,440200,5e60db57fdef8001c1fdc6f7,0,1,false,cross
699,1436.09,NULL,76,visual-search-circle,80,442943,5e60db57fdef8001c1fdc6f7,0,1,false,cross
700,1429.38,NULL,76,visual-search-circle,81,445680,5e60db57fdef8001c1fdc6f7,0,1,false,cross
701,1749.96,NULL,76,visual-search-circle,82,448735,5e60db57fdef8001c1fdc6f7,0,1,false,cross
702,1460.28,NULL,65,visual-search-circle,83,451504,5e60db57fdef8001c1fdc6f7,0,1,true,cross
703,2195.25,NULL,76,visual-search-circle,84,455008,5e60db57fdef8001c1fdc6f7,0,1,false,cross
704,1300.06,NULL,65,visual-search-circle,85,457615,5e60db57fdef8001c1fdc6f7,0,1,true,cross
705,1700.31,NULL,65,visual-search-circle,86,460623,5e60db57fdef8001c1fdc6f7,0,1,true,cross
706,1108.06,NULL,65,visual-search-circle,87,463040,5e60db57fdef8001c1fdc6f7,0,1,true,cross
707,1739.06,NULL,76,visual-search-circle,88,466087,5e60db57fdef8001c1fdc6f7,0,1,false,cross
708,1404.94,NULL,76,visual-search-circle,89,468800,5e60db57fdef8001c1fdc6f7,0,,true,cross
709,1595.46,NULL,65,visual-search-circle,90,471704,5e60db57fdef8001c1fdc6f7,0,1,true,cross
710,1174.18,NULL,65,visual-search-circle,91,474184,5e60db57fdef8001c1fdc6f7,0,1,true,cross
711,1389.22,NULL,65,visual-search-circle,92,476880,5e60db57fdef8001c1fdc6f7,0,1,true,cross
712,1356.8,NULL,76,visual-search-circle,93,479543,5e60db57fdef8001c1fdc6f7,0,1,false,cross
713,1372.62,NULL,76,visual-search-circle,94,482223,5e60db57fdef8001c1fdc6f7,0,1,false,cross
714,1884.51,NULL,76,visual-search-circle,95,485416,5e60db57fdef8001c1fdc6f7,0,1,false,cross
715,9234.63,"<div style='width:800px;'><p>Now the symbols will switch, where the target symbol will now be the nontarget and vice versa.</p><p>The rest of the procedure will remain the same for the next chunk of trials, so please continue to press the A key if one of the symbols does not match and the L key if they are all the same.</p><p>Press any key when you are ready to continue.</p></div>",32,html-keyboard-response,96,494951,5e60db57fdef8001c1fdc6f7,0,NULL,NULL,NULL
716,5874.84,NULL,76,visual-search-circle,97,501831,5e60db57fdef8001c1fdc6f7,0,1,false,cross
717,2949.72,NULL,76,visual-search-circle,98,506087,5e60db57fdef8001c1fdc6f7,0,1,false,cross
718,2005.04,NULL,65,visual-search-circle,99,509399,5e60db57fdef8001c1fdc6f7,0,1,true,cross
719,1589.84,NULL,65,visual-search-circle,100,512295,5e60db57fdef8001c1fdc6f7,0,1,true,cross
720,1099.78,NULL,65,visual-search-circle,101,514703,5e60db57fdef8001c1fdc6f7,0,1,true,cross
721,1581.69,NULL,76,visual-search-circle,102,517591,5e60db57fdef8001c1fdc6f7,0,1,false,cross
722,1149.48,NULL,76,visual-search-circle,103,520047,5e60db57fdef8001c1fdc6f7,0,1,false,cross
723,1509.72,NULL,76,visual-search-circle,104,522863,5e60db57fdef8001c1fdc6f7,0,1,false,cross
724,693.54,NULL,65,visual-search-circle,105,524863,5e60db57fdef8001c1fdc6f7,0,1,true,cross
725,1949.02,NULL,76,visual-search-circle,106,528119,5e60db57fdef8001c1fdc6f7,0,1,false,cross
726,757.435,NULL,65,visual-search-circle,107,530183,5e60db57fdef8001c1fdc6f7,0,1,true,cross
727,1846.2,NULL,76,visual-search-circle,108,533335,5e60db57fdef8001c1fdc6f7,0,1,false,cross
728,820.94,NULL,65,visual-search-circle,109,535463,5e60db57fdef8001c1fdc6f7,0,1,true,cross
729,660.745,NULL,65,visual-search-circle,110,537431,5e60db57fdef8001c1fdc6f7,0,1,true,cross
730,1357.7,NULL,76,visual-search-circle,111,540095,5e60db57fdef8001c1fdc6f7,0,1,false,cross
731,1725.86,NULL,76,visual-search-circle,112,543127,5e60db57fdef8001c1fdc6f7,0,1,false,cross
732,1301.27,NULL,65,visual-search-circle,113,545735,5e60db57fdef8001c1fdc6f7,0,1,true,cross
733,1565.73,NULL,65,visual-search-circle,114,548606,5e60db57fdef8001c1fdc6f7,0,1,true,cross
734,1331.82,NULL,65,visual-search-circle,115,551246,5e60db57fdef8001c1fdc6f7,0,1,true,cross
735,1188.22,NULL,76,visual-search-circle,116,553743,5e60db57fdef8001c1fdc6f7,0,1,false,cross
736,1093.17,NULL,65,visual-search-circle,117,556143,5e60db57fdef8001c1fdc6f7,0,1,true,cross
737,2354.53,NULL,65,visual-search-circle,118,559806,5e60db57fdef8001c1fdc6f7,0,1,true,cross
738,1829.76,NULL,76,visual-search-circle,119,562943,5e60db57fdef8001c1fdc6f7,0,1,false,cross
739,3525.28,NULL,76,visual-search-circle,120,567776,5e60db57fdef8001c1fdc6f7,0,1,false,cross
740,1493.42,NULL,76,visual-search-circle,121,570575,5e60db57fdef8001c1fdc6f7,0,1,false,cross
741,868.51,NULL,65,visual-search-circle,122,572751,5e60db57fdef8001c1fdc6f7,0,1,true,cross
742,7250.96,"<p>During the experiment, did you follow the initial instructions to think of the symbols as rotated 2s and 5s?</p><p>Press the key A for Yes. Press the key L for No. </p>",76,html-keyboard-response,123,580303,5e60db57fdef8001c1fdc6f7,0,NULL,NULL,NULL
743,4272,"<p>Welcome to the experiment. Press any key to get started.</p>",32,html-keyboard-response,0,4277,5e7a97a8e28dab0898b7cb23,3,NULL,NULL,NULL
744,9899,"<div style='width:800px;'><p>You will see a set of 10 symbols arranged in a circle.</p> <p>Sometimes all of the symbols will match. Other times one of the symbols will be different than the others.</p><p>Press the A key when one symbol is different. Press the L key when all symbols are the same.</p><p>Press any key to continue.</p></div>",32,html-keyboard-response,1,14179,5e7a97a8e28dab0898b7cb23,3,NULL,NULL,NULL
745,3640,display1.jpg,65,image-keyboard-response,2,17822,5e7a97a8e28dab0898b7cb23,3,NULL,NULL,NULL
746,1004,display2.jpg,76,image-keyboard-response,3,18828,5e7a97a8e28dab0898b7cb23,3,NULL,NULL,NULL
747,1949,"<div style='width:800px;'><p>In this set of trials, a fixation cross will be presented to you in the center of the screen.</p><p>Please focus your gaze on the fixation cross in the center until the symbol set is presented.</p><p>Press any key to continue.</p></div>",32,html-keyboard-response,4,20779,5e7a97a8e28dab0898b7cb23,3,NULL,NULL,NULL
748,2354,"<p>Now you will complete three trials for practice.</p><p>Press the A key if one of the symbols does not match and the L key if they all match.</p><p>Press any key when you are ready to begin.</p>",65,html-keyboard-response,5,23134,5e7a97a8e28dab0898b7cb23,3,NULL,NULL,NULL
749,665,NULL,65,visual-search-circle,6,24815,5e7a97a8e28dab0898b7cb23,3,,false,cross
750,590,NULL,65,visual-search-circle,7,26724,5e7a97a8e28dab0898b7cb23,3,1,true,cross
751,497,NULL,65,visual-search-circle,8,28534,5e7a97a8e28dab0898b7cb23,3,1,true,cross
752,10717,"<p>Now you will proceed to the test trials.</p><p>Press the A key if one of the symbols does not match and the L key if they all match.</p><p>Press any key when you are ready to begin.</p>",65,html-keyboard-response,9,39556,5e7a97a8e28dab0898b7cb23,3,NULL,NULL,NULL
753,785,NULL,76,visual-search-circle,10,41352,5e7a97a8e28dab0898b7cb23,3,1,false,cross
754,437,NULL,76,visual-search-circle,11,43106,5e7a97a8e28dab0898b7cb23,3,,true,cross
755,377,NULL,76,visual-search-circle,12,44803,5e7a97a8e28dab0898b7cb23,3,,true,cross
756,391,NULL,76,visual-search-circle,13,46507,5e7a97a8e28dab0898b7cb23,3,,true,cross
757,472,NULL,76,visual-search-circle,14,48293,5e7a97a8e28dab0898b7cb23,3,1,false,cross
758,466,NULL,76,visual-search-circle,15,50072,5e7a97a8e28dab0898b7cb23,3,1,false,cross
759,397,NULL,76,visual-search-circle,16,51792,5e7a97a8e28dab0898b7cb23,3,,true,cross
760,381,NULL,76,visual-search-circle,17,53482,5e7a97a8e28dab0898b7cb23,3,1,false,cross
761,352,NULL,76,visual-search-circle,18,55146,5e7a97a8e28dab0898b7cb23,3,,true,cross
762,406,NULL,76,visual-search-circle,19,56866,5e7a97a8e28dab0898b7cb23,3,1,false,cross
763,409,NULL,76,visual-search-circle,20,58589,5e7a97a8e28dab0898b7cb23,3,1,false,cross
764,643,NULL,76,visual-search-circle,21,60546,5e7a97a8e28dab0898b7cb23,3,,true,cross
765,500,NULL,76,visual-search-circle,22,62363,5e7a97a8e28dab0898b7cb23,3,,true,cross
766,460,NULL,76,visual-search-circle,23,64133,5e7a97a8e28dab0898b7cb23,3,,true,cross
767,872,NULL,76,visual-search-circle,24,66318,5e7a97a8e28dab0898b7cb23,3,1,false,cross
768,530,NULL,76,visual-search-circle,25,68166,5e7a97a8e28dab0898b7cb23,3,1,false,cross
769,536,NULL,76,visual-search-circle,26,70021,5e7a97a8e28dab0898b7cb23,3,1,false,cross
770,495,NULL,76,visual-search-circle,27,71831,5e7a97a8e28dab0898b7cb23,3,1,false,cross
771,566,NULL,76,visual-search-circle,28,73711,5e7a97a8e28dab0898b7cb23,3,,true,cross
772,406,NULL,76,visual-search-circle,29,75431,5e7a97a8e28dab0898b7cb23,3,1,false,cross
773,451,NULL,76,visual-search-circle,30,77197,5e7a97a8e28dab0898b7cb23,3,1,false,cross
774,410,NULL,76,visual-search-circle,31,78923,5e7a97a8e28dab0898b7cb23,3,1,false,cross
775,458,NULL,76,visual-search-circle,32,80698,5e7a97a8e28dab0898b7cb23,3,,true,cross
776,408,NULL,76,visual-search-circle,33,82422,5e7a97a8e28dab0898b7cb23,3,,true,cross
777,1536,NULL,76,visual-search-circle,34,85272,5e7a97a8e28dab0898b7cb23,3,,true,cross
778,2501,NULL,65,visual-search-circle,35,89084,5e7a97a8e28dab0898b7cb23,3,1,true,cross
779,7236,"<div style='width:800px;'><p>Now the symbols will switch, where the target symbol will now be the nontarget and vice versa.</p><p>The rest of the procedure will remain the same for the next chunk of trials, so please continue to press the A key if one of the symbols does not match and the L key if they are all the same.</p><p>Press any key when you are ready to continue.</p></div>",32,html-keyboard-response,36,96622,5e7a97a8e28dab0898b7cb23,3,NULL,NULL,NULL
780,5036,NULL,65,visual-search-circle,37,102664,5e7a97a8e28dab0898b7cb23,3,1,true,cross
781,4615,NULL,76,visual-search-circle,38,108598,5e7a97a8e28dab0898b7cb23,3,1,false,cross
782,1193,NULL,65,visual-search-circle,39,111107,5e7a97a8e28dab0898b7cb23,3,1,true,cross
783,2826,NULL,76,visual-search-circle,40,115248,5e7a97a8e28dab0898b7cb23,3,1,false,cross
784,1773,NULL,65,visual-search-circle,41,118332,5e7a97a8e28dab0898b7cb23,3,1,true,cross
785,3593,NULL,76,visual-search-circle,42,123236,5e7a97a8e28dab0898b7cb23,3,1,false,cross
786,3123,NULL,76,visual-search-circle,43,127670,5e7a97a8e28dab0898b7cb23,3,1,false,cross
787,4416,NULL,65,visual-search-circle,44,133398,5e7a97a8e28dab0898b7cb23,3,1,true,cross
788,1746,NULL,65,visual-search-circle,45,136459,5e7a97a8e28dab0898b7cb23,3,1,true,cross
789,3992,NULL,76,visual-search-circle,46,141763,5e7a97a8e28dab0898b7cb23,3,,true,cross
790,1546,NULL,65,visual-search-circle,47,144629,5e7a97a8e28dab0898b7cb23,3,1,true,cross
791,2954,NULL,65,visual-search-circle,48,148900,5e7a97a8e28dab0898b7cb23,3,1,true,cross
792,2703,NULL,65,visual-search-circle,49,152919,5e7a97a8e28dab0898b7cb23,3,1,true,cross
793,2566,NULL,76,visual-search-circle,50,156797,5e7a97a8e28dab0898b7cb23,3,1,false,cross
794,2910,NULL,76,visual-search-circle,51,161022,5e7a97a8e28dab0898b7cb23,3,1,false,cross
795,2402,NULL,76,visual-search-circle,52,164742,5e7a97a8e28dab0898b7cb23,3,1,false,cross
796,2079,NULL,76,visual-search-circle,53,168138,5e7a97a8e28dab0898b7cb23,3,1,false,cross
797,2169,NULL,76,visual-search-circle,54,171622,5e7a97a8e28dab0898b7cb23,3,1,false,cross
798,1765,NULL,76,visual-search-circle,55,174699,5e7a97a8e28dab0898b7cb23,3,1,false,cross
799,998,NULL,65,visual-search-circle,56,177009,5e7a97a8e28dab0898b7cb23,3,1,true,cross
800,1452,NULL,76,visual-search-circle,57,179771,5e7a97a8e28dab0898b7cb23,3,,true,cross
801,1680,NULL,65,visual-search-circle,58,182763,5e7a97a8e28dab0898b7cb23,3,1,true,cross
802,2912,NULL,76,visual-search-circle,59,186986,5e7a97a8e28dab0898b7cb23,3,1,false,cross
803,2617,NULL,76,visual-search-circle,60,190917,5e7a97a8e28dab0898b7cb23,3,1,false,cross
804,3522,NULL,76,visual-search-circle,61,195755,5e7a97a8e28dab0898b7cb23,3,,true,cross
805,2432,NULL,76,visual-search-circle,62,199504,5e7a97a8e28dab0898b7cb23,3,1,false,cross
806,2593,"<div style='width:800px;'><p>In this set of trials, the mismatching symbol will be presented to you in the center of the screen. You can use it as a reference to find the target.</p><p>Please focus your gaze on the symbol in the center until the symbol set is presented.</p><p>Press any key to continue.</p></div>",32,html-keyboard-response,63,202404,5e7a97a8e28dab0898b7cb23,3,NULL,NULL,NULL
807,2083,"<p>Now you will complete three trials for practice.</p><p>Press the A key if one of the symbols does not match and the L key if they all match.</p><p>Press any key when you are ready to begin.</p>",32,html-keyboard-response,64,204489,5e7a97a8e28dab0898b7cb23,3,NULL,NULL,NULL
808,3604,NULL,76,visual-search-circle,65,209105,5e7a97a8e28dab0898b7cb23,3,,true,oddball
809,3291,NULL,76,visual-search-circle,66,213710,5e7a97a8e28dab0898b7cb23,3,1,false,oddball
810,4296,NULL,65,visual-search-circle,67,219319,5e7a97a8e28dab0898b7cb23,3,,false,oddball
811,6571,"<p>Now you will proceed to the test trials.</p><p>Press the A key if one of the symbols does not match and the L key if they all match.</p><p>Press any key when you are ready to begin.</p>",32,html-keyboard-response,68,226192,5e7a97a8e28dab0898b7cb23,3,NULL,NULL,NULL
812,2690,NULL,65,visual-search-circle,69,229888,5e7a97a8e28dab0898b7cb23,3,1,true,oddball
813,2880,NULL,76,visual-search-circle,70,234085,5e7a97a8e28dab0898b7cb23,3,,true,oddball
814,3394,NULL,65,visual-search-circle,71,238792,5e7a97a8e28dab0898b7cb23,3,1,true,oddball
815,8357,NULL,76,visual-search-circle,72,248463,5e7a97a8e28dab0898b7cb23,3,1,false,oddball
816,1385,NULL,65,visual-search-circle,73,251159,5e7a97a8e28dab0898b7cb23,3,1,true,oddball
817,3360,NULL,76,visual-search-circle,74,255837,5e7a97a8e28dab0898b7cb23,3,1,false,oddball
818,4160,NULL,76,visual-search-circle,75,261309,5e7a97a8e28dab0898b7cb23,3,,true,oddball
819,1876,NULL,65,visual-search-circle,76,264495,5e7a97a8e28dab0898b7cb23,3,1,true,oddball
820,1833,NULL,76,visual-search-circle,77,267643,5e7a97a8e28dab0898b7cb23,3,1,false,oddball
821,3194,NULL,65,visual-search-circle,78,272152,5e7a97a8e28dab0898b7cb23,3,1,true,oddball
822,3910,NULL,76,visual-search-circle,79,277372,5e7a97a8e28dab0898b7cb23,3,1,false,oddball
823,2332,NULL,65,visual-search-circle,80,281018,5e7a97a8e28dab0898b7cb23,3,1,true,oddball
824,2204,NULL,76,visual-search-circle,81,284536,5e7a97a8e28dab0898b7cb23,3,1,false,oddball
825,2829,NULL,65,visual-search-circle,82,288678,5e7a97a8e28dab0898b7cb23,3,,false,oddball
826,4025,NULL,76,visual-search-circle,83,294019,5e7a97a8e28dab0898b7cb23,3,1,false,oddball
827,2301,NULL,76,visual-search-circle,84,297633,5e7a97a8e28dab0898b7cb23,3,1,false,oddball
828,1304,NULL,65,visual-search-circle,85,300249,5e7a97a8e28dab0898b7cb23,3,1,true,oddball
829,2428,NULL,76,visual-search-circle,86,303992,5e7a97a8e28dab0898b7cb23,3,1,false,oddball
830,2754,NULL,65,visual-search-circle,87,308063,5e7a97a8e28dab0898b7cb23,3,,false,oddball
831,3690,NULL,76,visual-search-circle,88,313071,5e7a97a8e28dab0898b7cb23,3,1,false,oddball
832,2838,NULL,65,visual-search-circle,89,317222,5e7a97a8e28dab0898b7cb23,3,1,true,oddball
833,6304,NULL,76,visual-search-circle,90,324841,5e7a97a8e28dab0898b7cb23,3,1,false,oddball
834,1577,NULL,65,visual-search-circle,91,327741,5e7a97a8e28dab0898b7cb23,3,1,true,oddball
835,3040,NULL,76,visual-search-circle,92,332098,5e7a97a8e28dab0898b7cb23,3,,true,oddball
836,2239,NULL,65,visual-search-circle,93,335644,5e7a97a8e28dab0898b7cb23,3,1,true,oddball
837,2580,NULL,76,visual-search-circle,94,339539,5e7a97a8e28dab0898b7cb23,3,1,false,oddball
838,45924,"<div style='width:800px;'><p>Now the symbols will switch, where the target symbol will now be the nontarget and vice versa.</p><p>The rest of the procedure will remain the same for the next chunk of trials, so please continue to press the A key if one of the symbols does not match and the L key if they are all the same.</p><p>Press any key when you are ready to continue.</p></div>",32,html-keyboard-response,95,385771,5e7a97a8e28dab0898b7cb23,3,NULL,NULL,NULL
839,1935,NULL,76,visual-search-circle,96,388724,5e7a97a8e28dab0898b7cb23,3,1,false,oddball
840,932,NULL,65,visual-search-circle,97,390970,5e7a97a8e28dab0898b7cb23,3,1,true,oddball
841,2256,NULL,76,visual-search-circle,98,394543,5e7a97a8e28dab0898b7cb23,3,1,false,oddball
842,2321,NULL,65,visual-search-circle,99,398178,5e7a97a8e28dab0898b7cb23,3,1,true,oddball
843,3157,NULL,76,visual-search-circle,100,402649,5e7a97a8e28dab0898b7cb23,3,1,false,oddball
844,2376,NULL,65,visual-search-circle,101,406339,5e7a97a8e28dab0898b7cb23,3,1,true,oddball
845,2332,NULL,76,visual-search-circle,102,409986,5e7a97a8e28dab0898b7cb23,3,1,false,oddball
846,2987,NULL,65,visual-search-circle,103,414289,5e7a97a8e28dab0898b7cb23,3,1,true,oddball
847,1986,NULL,76,visual-search-circle,104,417590,5e7a97a8e28dab0898b7cb23,3,,true,oddball
848,1155,NULL,65,visual-search-circle,105,420061,5e7a97a8e28dab0898b7cb23,3,,false,oddball
849,2110,NULL,76,visual-search-circle,106,423487,5e7a97a8e28dab0898b7cb23,3,1,false,oddball
850,1008,NULL,65,visual-search-circle,107,425806,5e7a97a8e28dab0898b7cb23,3,1,true,oddball
851,1617,NULL,76,visual-search-circle,108,428733,5e7a97a8e28dab0898b7cb23,3,,true,oddball
852,2122,NULL,76,visual-search-circle,109,432171,5e7a97a8e28dab0898b7cb23,3,,true,oddball
853,2407,NULL,76,visual-search-circle,110,435895,5e7a97a8e28dab0898b7cb23,3,1,false,oddball
854,3038,NULL,76,visual-search-circle,111,440245,5e7a97a8e28dab0898b7cb23,3,1,false,oddball
855,2667,NULL,65,visual-search-circle,112,444224,5e7a97a8e28dab0898b7cb23,3,1,true,oddball
856,2665,NULL,65,visual-search-circle,113,448207,5e7a97a8e28dab0898b7cb23,3,1,true,oddball
857,2630,NULL,76,visual-search-circle,114,452152,5e7a97a8e28dab0898b7cb23,3,,true,oddball
858,2196,NULL,65,visual-search-circle,115,455666,5e7a97a8e28dab0898b7cb23,3,1,true,oddball
859,1667,NULL,76,visual-search-circle,116,458654,5e7a97a8e28dab0898b7cb23,3,1,false,oddball
860,2184,NULL,65,visual-search-circle,117,462156,5e7a97a8e28dab0898b7cb23,3,,false,oddball
861,1610,NULL,76,visual-search-circle,118,465080,5e7a97a8e28dab0898b7cb23,3,1,false,oddball
862,1928,NULL,76,visual-search-circle,119,468325,5e7a97a8e28dab0898b7cb23,3,1,false,oddball
863,1809,NULL,65,visual-search-circle,120,471449,5e7a97a8e28dab0898b7cb23,3,1,true,oddball
864,2618,NULL,76,visual-search-circle,121,475384,5e7a97a8e28dab0898b7cb23,3,1,false,oddball
865,12296,"<div style='width:800px;'><p>The stimuli used in this experiment could have been conceptualized as alpha-numeric symbols such as rotated 2s and 5s or Us and Ns. In your trials, did you use any alpha-numeric symbols such as these to help you identify the symbols?</p><p>Press the key A for Yes. Press the key L for No. </p></div>",76,html-keyboard-response,122,487989,5e7a97a8e28dab0898b7cb23,3,NULL,NULL,NULL
866,1767.03,"<p>Welcome to the experiment. Press any key to get started.</p>",76,html-keyboard-response,0,1774,594c338cf301fb00013fb65c,1,NULL,NULL,NULL
867,12620.4,"<div style='width:800px;'><p>You will see a set of 10 symbols arranged in a circle.</p> <p>Sometimes all of the symbols will match. Other times one of the symbols will be different than the others.</p><p>Press the A key when one symbol is different. Press the L key when all symbols are the same.</p><p>Press any key to continue.</p></div>",65,html-keyboard-response,1,14383,594c338cf301fb00013fb65c,1,NULL,NULL,NULL
868,5391.38,display1.jpg,65,image-keyboard-response,2,19777,594c338cf301fb00013fb65c,1,NULL,NULL,NULL
869,2097.43,display2.jpg,76,image-keyboard-response,3,21877,594c338cf301fb00013fb65c,1,NULL,NULL,NULL
870,7081.35,display3.jpg,50,image-keyboard-response,4,28960,594c338cf301fb00013fb65c,1,NULL,NULL,NULL
871,7192.9,"<div style='width:800px;'><p>In this set of trials, a fixation cross will be presented to you in the center of the screen.</p><p>Please focus your gaze on the fixation cross in the center until the symbol set is presented.</p><p>Press any key to continue.</p></div>",76,html-keyboard-response,5,36156,594c338cf301fb00013fb65c,1,NULL,NULL,NULL
872,4132.85,"<p>Now you will complete three trials for practice.</p><p>Press the A key if one of the symbols does not match and the L key if they all match.</p><p>Press any key when you are ready to begin.</p>",76,html-keyboard-response,6,40290,594c338cf301fb00013fb65c,1,NULL,NULL,NULL
873,4201.4,NULL,76,visual-search-circle,7,45538,594c338cf301fb00013fb65c,1,,true,cross
